{"generation": {"1": {"stimulus": 80, "trial": 1, "rt": 11316}, "0": {"stimulus": 0, "trial": 0, "rt": 17023}, "3": {"stimulus": 8, "trial": 3, "rt": 7018}, "2": {"stimulus": 72, "trial": 2, "rt": 4745}}, "info": {"finish": 1482174658274, "participant": 1, "exposed": true, "lab": false, "start": 1482174407761, "counterbalance": 1, "condition": "Middle", "browser": {"platform": "Win32", "userAgent": "Mozilla/5.0 (Windows NT 6.1; Win64; x64) AppleWebKit/537.36 (KHTML, like Gecko) Chrome/54.0.2840.99 Safari/537.36"}}, "experiment": {"Paradigm": "TACL", "Stimuli": "Size-Color Squares", "Experiment": "Generating-Categories"}, "observation": {"11": {"stimulus": 48, "trial": 11, "rt": 1112}, "10": {"stimulus": 50, "trial": 10, "rt": 1022}, "1": {"stimulus": 32, "trial": 1, "rt": 1985}, "0": {"stimulus": 30, "trial": 0, "rt": 3185}, "3": {"stimulus": 50, "trial": 3, "rt": 1444}, "2": {"stimulus": 48, "trial": 2, "rt": 1954}, "5": {"stimulus": 30, "trial": 5, "rt": 1425}, "4": {"stimulus": 50, "trial": 4, "rt": 1388}, "7": {"stimulus": 48, "trial": 7, "rt": 1090}, "6": {"stimulus": 32, "trial": 6, "rt": 1041}, "9": {"stimulus": 32, "trial": 9, "rt": 1077}, "8": {"stimulus": 30, "trial": 8, "rt": 1003}}, "generalization": {"56": {"stimulus": 54, "trial": 56, "rt": 1157, "response": "Beta"}, "77": {"stimulus": 31, "trial": 77, "rt": 989, "response": "Alpha"}, "54": {"stimulus": 19, "trial": 54, "rt": 1058, "response": "Beta"}, "42": {"stimulus": 12, "trial": 42, "rt": 1546, "response": "Alpha"}, "48": {"stimulus": 21, "trial": 48, "rt": 884, "response": "Alpha"}, "43": {"stimulus": 72, "trial": 43, "rt": 931, "response": "Beta"}, "60": {"stimulus": 50, "trial": 60, "rt": 1099, "response": "Alpha"}, "61": {"stimulus": 45, "trial": 61, "rt": 953, "response": "Beta"}, "62": {"stimulus": 52, "trial": 62, "rt": 1916, "response": "Beta"}, "63": {"stimulus": 74, "trial": 63, "rt": 1326, "response": "Beta"}, "64": {"stimulus": 18, "trial": 64, "rt": 749, "response": "Beta"}, "49": {"stimulus": 65, "trial": 49, "rt": 1420, "response": "Alpha"}, "66": {"stimulus": 79, "trial": 66, "rt": 1042, "response": "Beta"}, "67": {"stimulus": 53, "trial": 67, "rt": 760, "response": "Beta"}, "68": {"stimulus": 75, "trial": 68, "rt": 3337, "response": "Alpha"}, "69": {"stimulus": 13, "trial": 69, "rt": 684, "response": "Alpha"}, "80": {"stimulus": 56, "trial": 80, "rt": 1003, "response": "Beta"}, "52": {"stimulus": 80, "trial": 52, "rt": 695, "response": "Beta"}, "53": {"stimulus": 58, "trial": 53, "rt": 1135, "response": "Alpha"}, "24": {"stimulus": 57, "trial": 24, "rt": 1372, "response": "Alpha"}, "25": {"stimulus": 30, "trial": 25, "rt": 744, "response": "Alpha"}, "26": {"stimulus": 36, "trial": 26, "rt": 1010, "response": "Beta"}, "27": {"stimulus": 9, "trial": 27, "rt": 915, "response": "Beta"}, "20": {"stimulus": 77, "trial": 20, "rt": 1209, "response": "Beta"}, "21": {"stimulus": 55, "trial": 21, "rt": 1254, "response": "Beta"}, "22": {"stimulus": 62, "trial": 22, "rt": 1122, "response": "Beta"}, "23": {"stimulus": 34, "trial": 23, "rt": 726, "response": "Beta"}, "46": {"stimulus": 24, "trial": 46, "rt": 947, "response": "Beta"}, "47": {"stimulus": 35, "trial": 47, "rt": 1278, "response": "Beta"}, "44": {"stimulus": 70, "trial": 44, "rt": 1576, "response": "Beta"}, "45": {"stimulus": 15, "trial": 45, "rt": 1135, "response": "Beta"}, "28": {"stimulus": 67, "trial": 28, "rt": 1066, "response": "Alpha"}, "29": {"stimulus": 27, "trial": 29, "rt": 1216, "response": "Beta"}, "40": {"stimulus": 64, "trial": 40, "rt": 1039, "response": "Beta"}, "41": {"stimulus": 25, "trial": 41, "rt": 1484, "response": "Beta"}, "1": {"stimulus": 78, "trial": 1, "rt": 2165, "response": "Beta"}, "0": {"stimulus": 44, "trial": 0, "rt": 2605, "response": "Beta"}, "3": {"stimulus": 42, "trial": 3, "rt": 3199, "response": "Alpha"}, "2": {"stimulus": 29, "trial": 2, "rt": 1798, "response": "Beta"}, "5": {"stimulus": 11, "trial": 5, "rt": 1119, "response": "Alpha"}, "4": {"stimulus": 47, "trial": 4, "rt": 2804, "response": "Alpha"}, "7": {"stimulus": 76, "trial": 7, "rt": 1331, "response": "Beta"}, "6": {"stimulus": 66, "trial": 6, "rt": 1175, "response": "Alpha"}, "9": {"stimulus": 10, "trial": 9, "rt": 1168, "response": "Beta"}, "8": {"stimulus": 4, "trial": 8, "rt": 1782, "response": "Beta"}, "78": {"stimulus": 73, "trial": 78, "rt": 1371, "response": "Beta"}, "51": {"stimulus": 17, "trial": 51, "rt": 1025, "response": "Beta"}, "39": {"stimulus": 6, "trial": 39, "rt": 2126, "response": "Beta"}, "65": {"stimulus": 41, "trial": 65, "rt": 1238, "response": "Alpha"}, "76": {"stimulus": 20, "trial": 76, "rt": 726, "response": "Beta"}, "75": {"stimulus": 46, "trial": 75, "rt": 1025, "response": "Beta"}, "38": {"stimulus": 3, "trial": 38, "rt": 1578, "response": "Alpha"}, "73": {"stimulus": 43, "trial": 73, "rt": 987, "response": "Beta"}, "72": {"stimulus": 69, "trial": 72, "rt": 703, "response": "Beta"}, "71": {"stimulus": 7, "trial": 71, "rt": 948, "response": "Beta"}, "70": {"stimulus": 63, "trial": 70, "rt": 1128, "response": "Beta"}, "59": {"stimulus": 71, "trial": 59, "rt": 852, "response": "Beta"}, "79": {"stimulus": 60, "trial": 79, "rt": 3196, "response": "Alpha"}, "58": {"stimulus": 51, "trial": 58, "rt": 2339, "response": "Beta"}, "11": {"stimulus": 61, "trial": 11, "rt": 1410, "response": "Beta"}, "10": {"stimulus": 68, "trial": 10, "rt": 2694, "response": "Beta"}, "13": {"stimulus": 23, "trial": 13, "rt": 1741, "response": "Alpha"}, "12": {"stimulus": 8, "trial": 12, "rt": 1075, "response": "Beta"}, "15": {"stimulus": 48, "trial": 15, "rt": 2766, "response": "Alpha"}, "14": {"stimulus": 0, "trial": 14, "rt": 1033, "response": "Beta"}, "17": {"stimulus": 2, "trial": 17, "rt": 1318, "response": "Alpha"}, "16": {"stimulus": 38, "trial": 16, "rt": 2094, "response": "Alpha"}, "19": {"stimulus": 26, "trial": 19, "rt": 1071, "response": "Beta"}, "18": {"stimulus": 14, "trial": 18, "rt": 1216, "response": "Alpha"}, "31": {"stimulus": 5, "trial": 31, "rt": 1380, "response": "Alpha"}, "30": {"stimulus": 33, "trial": 30, "rt": 2340, "response": "Alpha"}, "37": {"stimulus": 49, "trial": 37, "rt": 726, "response": "Alpha"}, "36": {"stimulus": 59, "trial": 36, "rt": 768, "response": "Alpha"}, "35": {"stimulus": 32, "trial": 35, "rt": 710, "response": "Alpha"}, "34": {"stimulus": 22, "trial": 34, "rt": 1278, "response": "Alpha"}, "33": {"stimulus": 16, "trial": 33, "rt": 1922, "response": "Beta"}, "55": {"stimulus": 39, "trial": 55, "rt": 1616, "response": "Alpha"}, "74": {"stimulus": 37, "trial": 74, "rt": 1961, "response": "Beta"}, "32": {"stimulus": 1, "trial": 32, "rt": 1222, "response": "Beta"}, "57": {"stimulus": 40, "trial": 57, "rt": 1208, "response": "Alpha"}, "50": {"stimulus": 28, "trial": 50, "rt": 1908, "response": "Beta"}}}