{"generation": {"1": {"stimulus": 17, "trial": 1, "rt": 5134}, "0": {"stimulus": 35, "trial": 0, "rt": 14444}, "3": {"stimulus": 34, "trial": 3, "rt": 8173}, "2": {"stimulus": 80, "trial": 2, "rt": 4397}}, "info": {"finish": 1482174647591, "participant": 10, "exposed": true, "lab": false, "start": 1482174460116, "counterbalance": 5, "condition": "Bottom", "browser": {"platform": "MacIntel", "userAgent": "Mozilla/5.0 (Macintosh; Intel Mac OS X 10_11_5) AppleWebKit/537.36 (KHTML, like Gecko) Chrome/55.0.2883.95 Safari/537.36"}}, "experiment": {"Paradigm": "TACL", "Stimuli": "Size-Color Squares", "Experiment": "Generating-Categories"}, "observation": {"11": {"stimulus": 30, "trial": 11, "rt": 869}, "10": {"stimulus": 14, "trial": 10, "rt": 1265}, "1": {"stimulus": 12, "trial": 1, "rt": 1281}, "0": {"stimulus": 32, "trial": 0, "rt": 1879}, "3": {"stimulus": 14, "trial": 3, "rt": 1015}, "2": {"stimulus": 30, "trial": 2, "rt": 1043}, "5": {"stimulus": 14, "trial": 5, "rt": 877}, "4": {"stimulus": 32, "trial": 4, "rt": 1480}, "7": {"stimulus": 30, "trial": 7, "rt": 823}, "6": {"stimulus": 12, "trial": 6, "rt": 961}, "9": {"stimulus": 32, "trial": 9, "rt": 908}, "8": {"stimulus": 12, "trial": 8, "rt": 911}}, "generalization": {"56": {"stimulus": 1, "trial": 56, "rt": 574, "response": "Alpha"}, "77": {"stimulus": 8, "trial": 77, "rt": 841, "response": "Beta"}, "54": {"stimulus": 43, "trial": 54, "rt": 567, "response": "Beta"}, "42": {"stimulus": 39, "trial": 42, "rt": 569, "response": "Alpha"}, "48": {"stimulus": 71, "trial": 48, "rt": 746, "response": "Beta"}, "43": {"stimulus": 30, "trial": 43, "rt": 521, "response": "Alpha"}, "60": {"stimulus": 80, "trial": 60, "rt": 621, "response": "Beta"}, "61": {"stimulus": 42, "trial": 61, "rt": 491, "response": "Beta"}, "62": {"stimulus": 65, "trial": 62, "rt": 1096, "response": "Alpha"}, "63": {"stimulus": 78, "trial": 63, "rt": 753, "response": "Beta"}, "64": {"stimulus": 53, "trial": 64, "rt": 781, "response": "Beta"}, "49": {"stimulus": 6, "trial": 49, "rt": 514, "response": "Beta"}, "66": {"stimulus": 34, "trial": 66, "rt": 2120, "response": "Beta"}, "67": {"stimulus": 9, "trial": 67, "rt": 673, "response": "Alpha"}, "68": {"stimulus": 40, "trial": 68, "rt": 1197, "response": "Alpha"}, "69": {"stimulus": 14, "trial": 69, "rt": 1264, "response": "Alpha"}, "80": {"stimulus": 17, "trial": 80, "rt": 731, "response": "Beta"}, "52": {"stimulus": 27, "trial": 52, "rt": 598, "response": "Alpha"}, "53": {"stimulus": 15, "trial": 53, "rt": 773, "response": "Beta"}, "24": {"stimulus": 3, "trial": 24, "rt": 980, "response": "Alpha"}, "25": {"stimulus": 56, "trial": 25, "rt": 655, "response": "Alpha"}, "26": {"stimulus": 60, "trial": 26, "rt": 881, "response": "Beta"}, "27": {"stimulus": 54, "trial": 27, "rt": 741, "response": "Alpha"}, "20": {"stimulus": 41, "trial": 20, "rt": 505, "response": "Alpha"}, "21": {"stimulus": 62, "trial": 21, "rt": 602, "response": "Beta"}, "22": {"stimulus": 0, "trial": 22, "rt": 816, "response": "Alpha"}, "23": {"stimulus": 31, "trial": 23, "rt": 595, "response": "Alpha"}, "46": {"stimulus": 73, "trial": 46, "rt": 629, "response": "Alpha"}, "47": {"stimulus": 10, "trial": 47, "rt": 602, "response": "Alpha"}, "44": {"stimulus": 36, "trial": 44, "rt": 861, "response": "Alpha"}, "45": {"stimulus": 59, "trial": 45, "rt": 869, "response": "Beta"}, "28": {"stimulus": 79, "trial": 28, "rt": 632, "response": "Beta"}, "29": {"stimulus": 72, "trial": 29, "rt": 917, "response": "Alpha"}, "40": {"stimulus": 18, "trial": 40, "rt": 749, "response": "Alpha"}, "41": {"stimulus": 13, "trial": 41, "rt": 1311, "response": "Alpha"}, "1": {"stimulus": 22, "trial": 1, "rt": 779, "response": "Alpha"}, "0": {"stimulus": 26, "trial": 0, "rt": 1160, "response": "Beta"}, "3": {"stimulus": 28, "trial": 3, "rt": 753, "response": "Alpha"}, "2": {"stimulus": 16, "trial": 2, "rt": 889, "response": "Beta"}, "5": {"stimulus": 61, "trial": 5, "rt": 859, "response": "Beta"}, "4": {"stimulus": 5, "trial": 4, "rt": 2370, "response": "Alpha"}, "7": {"stimulus": 45, "trial": 7, "rt": 573, "response": "Alpha"}, "6": {"stimulus": 64, "trial": 6, "rt": 777, "response": "Alpha"}, "9": {"stimulus": 69, "trial": 9, "rt": 730, "response": "Beta"}, "8": {"stimulus": 63, "trial": 8, "rt": 590, "response": "Alpha"}, "78": {"stimulus": 25, "trial": 78, "rt": 563, "response": "Beta"}, "51": {"stimulus": 4, "trial": 51, "rt": 523, "response": "Alpha"}, "39": {"stimulus": 50, "trial": 39, "rt": 955, "response": "Beta"}, "65": {"stimulus": 11, "trial": 65, "rt": 6593, "response": "Alpha"}, "76": {"stimulus": 33, "trial": 76, "rt": 1541, "response": "Beta"}, "75": {"stimulus": 46, "trial": 75, "rt": 995, "response": "Alpha"}, "38": {"stimulus": 29, "trial": 38, "rt": 547, "response": "Alpha"}, "73": {"stimulus": 58, "trial": 73, "rt": 897, "response": "Alpha"}, "72": {"stimulus": 7, "trial": 72, "rt": 557, "response": "Beta"}, "71": {"stimulus": 70, "trial": 71, "rt": 636, "response": "Beta"}, "70": {"stimulus": 32, "trial": 70, "rt": 1054, "response": "Alpha"}, "59": {"stimulus": 77, "trial": 59, "rt": 540, "response": "Alpha"}, "79": {"stimulus": 67, "trial": 79, "rt": 1133, "response": "Alpha"}, "58": {"stimulus": 38, "trial": 58, "rt": 556, "response": "Alpha"}, "11": {"stimulus": 35, "trial": 11, "rt": 434, "response": "Beta"}, "10": {"stimulus": 44, "trial": 10, "rt": 537, "response": "Beta"}, "13": {"stimulus": 37, "trial": 13, "rt": 1058, "response": "Alpha"}, "12": {"stimulus": 49, "trial": 12, "rt": 787, "response": "Alpha"}, "15": {"stimulus": 68, "trial": 15, "rt": 476, "response": "Alpha"}, "14": {"stimulus": 47, "trial": 14, "rt": 475, "response": "Alpha"}, "17": {"stimulus": 52, "trial": 17, "rt": 733, "response": "Beta"}, "16": {"stimulus": 55, "trial": 16, "rt": 836, "response": "Alpha"}, "19": {"stimulus": 48, "trial": 19, "rt": 525, "response": "Alpha"}, "18": {"stimulus": 75, "trial": 18, "rt": 846, "response": "Alpha"}, "31": {"stimulus": 74, "trial": 31, "rt": 920, "response": "Alpha"}, "30": {"stimulus": 24, "trial": 30, "rt": 604, "response": "Alpha"}, "37": {"stimulus": 21, "trial": 37, "rt": 610, "response": "Alpha"}, "36": {"stimulus": 51, "trial": 36, "rt": 761, "response": "Beta"}, "35": {"stimulus": 19, "trial": 35, "rt": 472, "response": "Alpha"}, "34": {"stimulus": 20, "trial": 34, "rt": 495, "response": "Alpha"}, "33": {"stimulus": 2, "trial": 33, "rt": 523, "response": "Alpha"}, "55": {"stimulus": 23, "trial": 55, "rt": 1073, "response": "Beta"}, "74": {"stimulus": 12, "trial": 74, "rt": 588, "response": "Alpha"}, "32": {"stimulus": 57, "trial": 32, "rt": 556, "response": "Alpha"}, "57": {"stimulus": 76, "trial": 57, "rt": 536, "response": "Alpha"}, "50": {"stimulus": 66, "trial": 50, "rt": 759, "response": "Alpha"}}}