{"generation": {"1": {"stimulus": 73, "trial": 1, "rt": 4273}, "0": {"stimulus": 72, "trial": 0, "rt": 10170}, "3": {"stimulus": 75, "trial": 3, "rt": 3415}, "2": {"stimulus": 74, "trial": 2, "rt": 23871}}, "info": {"finish": 1482181638013, "participant": 100, "exposed": true, "lab": false, "start": 1482181446513, "counterbalance": 2, "condition": "Middle", "browser": {"platform": "Win32", "userAgent": "Mozilla/5.0 (Windows NT 6.1; Win64; x64) AppleWebKit/537.36 (KHTML, like Gecko) Chrome/55.0.2883.87 Safari/537.36"}}, "experiment": {"Paradigm": "TACL", "Stimuli": "Size-Color Squares", "Experiment": "Generating-Categories"}, "observation": {"11": {"stimulus": 30, "trial": 11, "rt": 794}, "10": {"stimulus": 32, "trial": 10, "rt": 896}, "1": {"stimulus": 30, "trial": 1, "rt": 2435}, "0": {"stimulus": 32, "trial": 0, "rt": 1365}, "3": {"stimulus": 50, "trial": 3, "rt": 980}, "2": {"stimulus": 48, "trial": 2, "rt": 1117}, "5": {"stimulus": 48, "trial": 5, "rt": 790}, "4": {"stimulus": 50, "trial": 4, "rt": 884}, "7": {"stimulus": 32, "trial": 7, "rt": 817}, "6": {"stimulus": 30, "trial": 6, "rt": 990}, "9": {"stimulus": 50, "trial": 9, "rt": 863}, "8": {"stimulus": 48, "trial": 8, "rt": 1172}}, "generalization": {"56": {"stimulus": 16, "trial": 56, "rt": 588, "response": "Beta"}, "77": {"stimulus": 60, "trial": 77, "rt": 548, "response": "Alpha"}, "54": {"stimulus": 30, "trial": 54, "rt": 1672, "response": "Beta"}, "42": {"stimulus": 61, "trial": 42, "rt": 593, "response": "Alpha"}, "48": {"stimulus": 79, "trial": 48, "rt": 533, "response": "Alpha"}, "43": {"stimulus": 59, "trial": 43, "rt": 452, "response": "Alpha"}, "60": {"stimulus": 15, "trial": 60, "rt": 678, "response": "Beta"}, "61": {"stimulus": 13, "trial": 61, "rt": 3160, "response": "Beta"}, "62": {"stimulus": 46, "trial": 62, "rt": 867, "response": "Alpha"}, "63": {"stimulus": 71, "trial": 63, "rt": 980, "response": "Beta"}, "64": {"stimulus": 76, "trial": 64, "rt": 558, "response": "Alpha"}, "49": {"stimulus": 66, "trial": 49, "rt": 499, "response": "Alpha"}, "66": {"stimulus": 70, "trial": 66, "rt": 812, "response": "Alpha"}, "67": {"stimulus": 57, "trial": 67, "rt": 1006, "response": "Alpha"}, "68": {"stimulus": 7, "trial": 68, "rt": 560, "response": "Beta"}, "69": {"stimulus": 62, "trial": 69, "rt": 687, "response": "Alpha"}, "80": {"stimulus": 12, "trial": 80, "rt": 570, "response": "Beta"}, "52": {"stimulus": 1, "trial": 52, "rt": 1102, "response": "Beta"}, "53": {"stimulus": 8, "trial": 53, "rt": 769, "response": "Beta"}, "24": {"stimulus": 77, "trial": 24, "rt": 1317, "response": "Beta"}, "25": {"stimulus": 21, "trial": 25, "rt": 1637, "response": "Beta"}, "26": {"stimulus": 48, "trial": 26, "rt": 938, "response": "Alpha"}, "27": {"stimulus": 37, "trial": 27, "rt": 963, "response": "Alpha"}, "20": {"stimulus": 52, "trial": 20, "rt": 673, "response": "Alpha"}, "21": {"stimulus": 4, "trial": 21, "rt": 711, "response": "Beta"}, "22": {"stimulus": 74, "trial": 22, "rt": 1750, "response": "Alpha"}, "23": {"stimulus": 36, "trial": 23, "rt": 1149, "response": "Alpha"}, "46": {"stimulus": 27, "trial": 46, "rt": 1213, "response": "Beta"}, "47": {"stimulus": 55, "trial": 47, "rt": 653, "response": "Alpha"}, "44": {"stimulus": 40, "trial": 44, "rt": 417, "response": "Alpha"}, "45": {"stimulus": 35, "trial": 45, "rt": 671, "response": "Alpha"}, "28": {"stimulus": 51, "trial": 28, "rt": 700, "response": "Alpha"}, "29": {"stimulus": 53, "trial": 29, "rt": 1030, "response": "Alpha"}, "40": {"stimulus": 23, "trial": 40, "rt": 596, "response": "Beta"}, "41": {"stimulus": 54, "trial": 41, "rt": 628, "response": "Alpha"}, "1": {"stimulus": 63, "trial": 1, "rt": 2330, "response": "Alpha"}, "0": {"stimulus": 28, "trial": 0, "rt": 1270, "response": "Alpha"}, "3": {"stimulus": 2, "trial": 3, "rt": 666, "response": "Alpha"}, "2": {"stimulus": 18, "trial": 2, "rt": 590, "response": "Alpha"}, "5": {"stimulus": 80, "trial": 5, "rt": 788, "response": "Beta"}, "4": {"stimulus": 41, "trial": 4, "rt": 893, "response": "Alpha"}, "7": {"stimulus": 19, "trial": 7, "rt": 697, "response": "Alpha"}, "6": {"stimulus": 9, "trial": 6, "rt": 1259, "response": "Alpha"}, "9": {"stimulus": 69, "trial": 9, "rt": 1079, "response": "Beta"}, "8": {"stimulus": 32, "trial": 8, "rt": 639, "response": "Alpha"}, "78": {"stimulus": 72, "trial": 78, "rt": 538, "response": "Alpha"}, "51": {"stimulus": 75, "trial": 51, "rt": 671, "response": "Alpha"}, "39": {"stimulus": 65, "trial": 39, "rt": 561, "response": "Alpha"}, "65": {"stimulus": 29, "trial": 65, "rt": 789, "response": "Alpha"}, "76": {"stimulus": 22, "trial": 76, "rt": 363, "response": "Beta"}, "75": {"stimulus": 42, "trial": 75, "rt": 650, "response": "Alpha"}, "38": {"stimulus": 67, "trial": 38, "rt": 958, "response": "Alpha"}, "73": {"stimulus": 24, "trial": 73, "rt": 1860, "response": "Beta"}, "72": {"stimulus": 45, "trial": 72, "rt": 1264, "response": "Alpha"}, "71": {"stimulus": 44, "trial": 71, "rt": 820, "response": "Alpha"}, "70": {"stimulus": 78, "trial": 70, "rt": 549, "response": "Alpha"}, "59": {"stimulus": 58, "trial": 59, "rt": 566, "response": "Alpha"}, "79": {"stimulus": 33, "trial": 79, "rt": 500, "response": "Beta"}, "58": {"stimulus": 47, "trial": 58, "rt": 470, "response": "Alpha"}, "11": {"stimulus": 38, "trial": 11, "rt": 879, "response": "Alpha"}, "10": {"stimulus": 39, "trial": 10, "rt": 873, "response": "Alpha"}, "13": {"stimulus": 31, "trial": 13, "rt": 629, "response": "Alpha"}, "12": {"stimulus": 43, "trial": 12, "rt": 1507, "response": "Alpha"}, "15": {"stimulus": 0, "trial": 15, "rt": 593, "response": "Alpha"}, "14": {"stimulus": 50, "trial": 14, "rt": 801, "response": "Alpha"}, "17": {"stimulus": 25, "trial": 17, "rt": 986, "response": "Alpha"}, "16": {"stimulus": 68, "trial": 16, "rt": 2701, "response": "Alpha"}, "19": {"stimulus": 20, "trial": 19, "rt": 1096, "response": "Beta"}, "18": {"stimulus": 5, "trial": 18, "rt": 604, "response": "Beta"}, "31": {"stimulus": 10, "trial": 31, "rt": 541, "response": "Beta"}, "30": {"stimulus": 11, "trial": 30, "rt": 583, "response": "Beta"}, "37": {"stimulus": 56, "trial": 37, "rt": 1080, "response": "Alpha"}, "36": {"stimulus": 14, "trial": 36, "rt": 606, "response": "Beta"}, "35": {"stimulus": 73, "trial": 35, "rt": 672, "response": "Alpha"}, "34": {"stimulus": 64, "trial": 34, "rt": 690, "response": "Alpha"}, "33": {"stimulus": 17, "trial": 33, "rt": 477, "response": "Beta"}, "55": {"stimulus": 49, "trial": 55, "rt": 1360, "response": "Alpha"}, "74": {"stimulus": 6, "trial": 74, "rt": 411, "response": "Beta"}, "32": {"stimulus": 26, "trial": 32, "rt": 505, "response": "Beta"}, "57": {"stimulus": 34, "trial": 57, "rt": 387, "response": "Beta"}, "50": {"stimulus": 3, "trial": 50, "rt": 747, "response": "Beta"}}}