{"generation": {"1": {"stimulus": 75, "trial": 1, "rt": 4778}, "0": {"stimulus": 76, "trial": 0, "rt": 17082}, "3": {"stimulus": 74, "trial": 3, "rt": 12274}, "2": {"stimulus": 73, "trial": 2, "rt": 9707}}, "info": {"participant": 101, "exposed": true, "lab": false, "start": 1482181445986, "counterbalance": 5, "condition": "Bottom", "browser": {"platform": "Win32", "userAgent": "Mozilla/5.0 (Windows NT 10.0; WOW64) AppleWebKit/537.36 (KHTML, like Gecko) Chrome/55.0.2883.87 Safari/537.36"}}, "experiment": {"Paradigm": "TACL", "Stimuli": "Size-Color Squares", "Experiment": "Generating-Categories"}, "observation": {"11": {"stimulus": 14, "trial": 11, "rt": 1012}, "10": {"stimulus": 30, "trial": 10, "rt": 954}, "1": {"stimulus": 14, "trial": 1, "rt": 1457}, "0": {"stimulus": 12, "trial": 0, "rt": 2455}, "3": {"stimulus": 32, "trial": 3, "rt": 1795}, "2": {"stimulus": 30, "trial": 2, "rt": 978}, "5": {"stimulus": 32, "trial": 5, "rt": 963}, "4": {"stimulus": 30, "trial": 4, "rt": 1019}, "7": {"stimulus": 14, "trial": 7, "rt": 1210}, "6": {"stimulus": 12, "trial": 6, "rt": 891}, "9": {"stimulus": 32, "trial": 9, "rt": 1019}, "8": {"stimulus": 12, "trial": 8, "rt": 1228}}, "generalization": {"56": {"stimulus": 54, "trial": 56, "rt": 752, "response": "Alpha"}, "77": {"stimulus": 57, "trial": 77, "rt": 731, "response": "Beta"}, "54": {"stimulus": 50, "trial": 54, "rt": 714, "response": "Alpha"}, "42": {"stimulus": 67, "trial": 42, "rt": 789, "response": "Beta"}, "48": {"stimulus": 0, "trial": 48, "rt": 947, "response": "Beta"}, "43": {"stimulus": 49, "trial": 43, "rt": 1177, "response": "Alpha"}, "60": {"stimulus": 3, "trial": 60, "rt": 802, "response": "Beta"}, "61": {"stimulus": 41, "trial": 61, "rt": 1290, "response": "Alpha"}, "62": {"stimulus": 42, "trial": 62, "rt": 763, "response": "Alpha"}, "63": {"stimulus": 11, "trial": 63, "rt": 876, "response": "Beta"}, "64": {"stimulus": 21, "trial": 64, "rt": 803, "response": "Beta"}, "49": {"stimulus": 14, "trial": 49, "rt": 1675, "response": "Beta"}, "66": {"stimulus": 36, "trial": 66, "rt": 1506, "response": "Alpha"}, "67": {"stimulus": 8, "trial": 67, "rt": 1178, "response": "Beta"}, "68": {"stimulus": 22, "trial": 68, "rt": 1123, "response": "Alpha"}, "69": {"stimulus": 65, "trial": 69, "rt": 12785, "response": "Beta"}, "80": {"stimulus": 13, "trial": 80, "rt": 890, "response": "Beta"}, "52": {"stimulus": 58, "trial": 52, "rt": 1819, "response": "Beta"}, "53": {"stimulus": 2, "trial": 53, "rt": 843, "response": "Beta"}, "24": {"stimulus": 1, "trial": 24, "rt": 907, "response": "Beta"}, "25": {"stimulus": 5, "trial": 25, "rt": 898, "response": "Beta"}, "26": {"stimulus": 18, "trial": 26, "rt": 1043, "response": "Beta"}, "27": {"stimulus": 47, "trial": 27, "rt": 922, "response": "Alpha"}, "20": {"stimulus": 38, "trial": 20, "rt": 870, "response": "Alpha"}, "21": {"stimulus": 66, "trial": 21, "rt": 1970, "response": "Beta"}, "22": {"stimulus": 9, "trial": 22, "rt": 1082, "response": "Beta"}, "23": {"stimulus": 78, "trial": 23, "rt": 1635, "response": "Beta"}, "46": {"stimulus": 7, "trial": 46, "rt": 739, "response": "Beta"}, "47": {"stimulus": 77, "trial": 47, "rt": 8706, "response": "Beta"}, "44": {"stimulus": 4, "trial": 44, "rt": 707, "response": "Beta"}, "45": {"stimulus": 51, "trial": 45, "rt": 1194, "response": "Alpha"}, "28": {"stimulus": 46, "trial": 28, "rt": 858, "response": "Alpha"}, "29": {"stimulus": 72, "trial": 29, "rt": 1083, "response": "Beta"}, "40": {"stimulus": 62, "trial": 40, "rt": 699, "response": "Beta"}, "41": {"stimulus": 76, "trial": 41, "rt": 634, "response": "Beta"}, "1": {"stimulus": 26, "trial": 1, "rt": 3354, "response": "Beta"}, "0": {"stimulus": 44, "trial": 0, "rt": 3993, "response": "Alpha"}, "3": {"stimulus": 39, "trial": 3, "rt": 1219, "response": "Alpha"}, "2": {"stimulus": 37, "trial": 2, "rt": 1226, "response": "Alpha"}, "5": {"stimulus": 74, "trial": 5, "rt": 1530, "response": "Beta"}, "4": {"stimulus": 19, "trial": 4, "rt": 1042, "response": "Beta"}, "7": {"stimulus": 53, "trial": 7, "rt": 1123, "response": "Alpha"}, "6": {"stimulus": 24, "trial": 6, "rt": 1291, "response": "Beta"}, "9": {"stimulus": 23, "trial": 9, "rt": 1427, "response": "Beta"}, "8": {"stimulus": 31, "trial": 8, "rt": 852, "response": "Alpha"}, "78": {"stimulus": 32, "trial": 78, "rt": 1057, "response": "Alpha"}, "51": {"stimulus": 79, "trial": 51, "rt": 6755, "response": "Beta"}, "39": {"stimulus": 56, "trial": 39, "rt": 1627, "response": "Beta"}, "65": {"stimulus": 6, "trial": 65, "rt": 747, "response": "Beta"}, "76": {"stimulus": 64, "trial": 76, "rt": 1019, "response": "Beta"}, "75": {"stimulus": 29, "trial": 75, "rt": 651, "response": "Alpha"}, "38": {"stimulus": 10, "trial": 38, "rt": 1067, "response": "Beta"}, "73": {"stimulus": 55, "trial": 73, "rt": 1019, "response": "Beta"}, "72": {"stimulus": 68, "trial": 72, "rt": 875, "response": "Beta"}, "71": {"stimulus": 12, "trial": 71, "rt": 1675, "response": "Beta"}, "70": {"stimulus": 73, "trial": 70, "rt": 892, "response": "Beta"}, "59": {"stimulus": 17, "trial": 59, "rt": 717, "response": "Beta"}, "79": {"stimulus": 61, "trial": 79, "rt": 1228, "response": "Alpha"}, "58": {"stimulus": 70, "trial": 58, "rt": 984, "response": "Beta"}, "11": {"stimulus": 45, "trial": 11, "rt": 1738, "response": "Alpha"}, "10": {"stimulus": 80, "trial": 10, "rt": 1003, "response": "Beta"}, "13": {"stimulus": 15, "trial": 13, "rt": 987, "response": "Beta"}, "12": {"stimulus": 20, "trial": 12, "rt": 1346, "response": "Beta"}, "15": {"stimulus": 16, "trial": 15, "rt": 915, "response": "Beta"}, "14": {"stimulus": 63, "trial": 14, "rt": 1275, "response": "Beta"}, "17": {"stimulus": 43, "trial": 17, "rt": 923, "response": "Alpha"}, "16": {"stimulus": 25, "trial": 16, "rt": 819, "response": "Beta"}, "19": {"stimulus": 28, "trial": 19, "rt": 1082, "response": "Alpha"}, "18": {"stimulus": 52, "trial": 18, "rt": 1603, "response": "Alpha"}, "31": {"stimulus": 69, "trial": 31, "rt": 2651, "response": "Beta"}, "30": {"stimulus": 40, "trial": 30, "rt": 1377, "response": "Alpha"}, "37": {"stimulus": 60, "trial": 37, "rt": 627, "response": "Alpha"}, "36": {"stimulus": 48, "trial": 36, "rt": 715, "response": "Alpha"}, "35": {"stimulus": 71, "trial": 35, "rt": 627, "response": "Beta"}, "34": {"stimulus": 75, "trial": 34, "rt": 923, "response": "Beta"}, "33": {"stimulus": 35, "trial": 33, "rt": 883, "response": "Alpha"}, "55": {"stimulus": 59, "trial": 55, "rt": 714, "response": "Alpha"}, "74": {"stimulus": 34, "trial": 74, "rt": 876, "response": "Alpha"}, "32": {"stimulus": 27, "trial": 32, "rt": 2243, "response": "Alpha"}, "57": {"stimulus": 30, "trial": 57, "rt": 1629, "response": "Alpha"}, "50": {"stimulus": 33, "trial": 50, "rt": 931, "response": "Alpha"}}}1, "response": "Alpha"}}}