{"generation": {"1": {"stimulus": 78, "trial": 1, "rt": 6002}, "0": {"stimulus": 76, "trial": 0, "rt": 10521}, "3": {"stimulus": 79, "trial": 3, "rt": 5803}, "2": {"stimulus": 74, "trial": 2, "rt": 3421}}, "info": {"finish": 1482182403978, "participant": 102, "exposed": true, "lab": false, "start": 1482181445556, "counterbalance": 1, "condition": "Bottom", "browser": {"platform": "Win32", "userAgent": "Mozilla/5.0 (Windows NT 10.0; Win64; x64) AppleWebKit/537.36 (KHTML, like Gecko) Chrome/55.0.2883.87 Safari/537.36"}}, "experiment": {"Paradigm": "TACL", "Stimuli": "Size-Color Squares", "Experiment": "Generating-Categories"}, "observation": {"11": {"stimulus": 32, "trial": 11, "rt": 906}, "10": {"stimulus": 12, "trial": 10, "rt": 814}, "1": {"stimulus": 14, "trial": 1, "rt": 1328}, "0": {"stimulus": 30, "trial": 0, "rt": 1540}, "3": {"stimulus": 32, "trial": 3, "rt": 994}, "2": {"stimulus": 12, "trial": 2, "rt": 1055}, "5": {"stimulus": 30, "trial": 5, "rt": 652}, "4": {"stimulus": 32, "trial": 4, "rt": 896}, "7": {"stimulus": 12, "trial": 7, "rt": 846}, "6": {"stimulus": 14, "trial": 6, "rt": 885}, "9": {"stimulus": 14, "trial": 9, "rt": 773}, "8": {"stimulus": 30, "trial": 8, "rt": 827}}, "generalization": {"56": {"stimulus": 67, "trial": 56, "rt": 815, "response": "Beta"}, "77": {"stimulus": 40, "trial": 77, "rt": 1018, "response": "Alpha"}, "54": {"stimulus": 10, "trial": 54, "rt": 725, "response": "Alpha"}, "42": {"stimulus": 24, "trial": 42, "rt": 643, "response": "Alpha"}, "48": {"stimulus": 52, "trial": 48, "rt": 763, "response": "Beta"}, "43": {"stimulus": 66, "trial": 43, "rt": 799, "response": "Beta"}, "60": {"stimulus": 50, "trial": 60, "rt": 744, "response": "Beta"}, "61": {"stimulus": 45, "trial": 61, "rt": 552, "response": "Beta"}, "62": {"stimulus": 48, "trial": 62, "rt": 498, "response": "Beta"}, "63": {"stimulus": 4, "trial": 63, "rt": 949, "response": "Beta"}, "64": {"stimulus": 20, "trial": 64, "rt": 929, "response": "Alpha"}, "49": {"stimulus": 73, "trial": 49, "rt": 601, "response": "Beta"}, "66": {"stimulus": 37, "trial": 66, "rt": 1043, "response": "Beta"}, "67": {"stimulus": 26, "trial": 67, "rt": 1234, "response": "Alpha"}, "68": {"stimulus": 61, "trial": 68, "rt": 978, "response": "Beta"}, "69": {"stimulus": 17, "trial": 69, "rt": 1051, "response": "Beta"}, "80": {"stimulus": 1, "trial": 80, "rt": 801, "response": "Beta"}, "52": {"stimulus": 5, "trial": 52, "rt": 1007, "response": "Beta"}, "53": {"stimulus": 38, "trial": 53, "rt": 741, "response": "Alpha"}, "24": {"stimulus": 31, "trial": 24, "rt": 800, "response": "Alpha"}, "25": {"stimulus": 27, "trial": 25, "rt": 623, "response": "Alpha"}, "26": {"stimulus": 9, "trial": 26, "rt": 626, "response": "Alpha"}, "27": {"stimulus": 59, "trial": 27, "rt": 1050, "response": "Beta"}, "20": {"stimulus": 80, "trial": 20, "rt": 638, "response": "Beta"}, "21": {"stimulus": 78, "trial": 21, "rt": 501, "response": "Beta"}, "22": {"stimulus": 69, "trial": 22, "rt": 437, "response": "Beta"}, "23": {"stimulus": 46, "trial": 23, "rt": 705, "response": "Beta"}, "46": {"stimulus": 18, "trial": 46, "rt": 743, "response": "Alpha"}, "47": {"stimulus": 76, "trial": 47, "rt": 754, "response": "Beta"}, "44": {"stimulus": 43, "trial": 44, "rt": 1633, "response": "Beta"}, "45": {"stimulus": 60, "trial": 45, "rt": 611, "response": "Beta"}, "28": {"stimulus": 57, "trial": 28, "rt": 481, "response": "Beta"}, "29": {"stimulus": 14, "trial": 29, "rt": 740, "response": "Alpha"}, "40": {"stimulus": 33, "trial": 40, "rt": 1165, "response": "Alpha"}, "41": {"stimulus": 6, "trial": 41, "rt": 923, "response": "Beta"}, "1": {"stimulus": 35, "trial": 1, "rt": 858, "response": "Alpha"}, "0": {"stimulus": 39, "trial": 0, "rt": 1262, "response": "Alpha"}, "3": {"stimulus": 56, "trial": 3, "rt": 963, "response": "Beta"}, "2": {"stimulus": 44, "trial": 2, "rt": 691, "response": "Alpha"}, "5": {"stimulus": 36, "trial": 5, "rt": 893, "response": "Alpha"}, "4": {"stimulus": 58, "trial": 4, "rt": 513, "response": "Beta"}, "7": {"stimulus": 15, "trial": 7, "rt": 1449, "response": "Beta"}, "6": {"stimulus": 64, "trial": 6, "rt": 765, "response": "Beta"}, "9": {"stimulus": 70, "trial": 9, "rt": 585, "response": "Beta"}, "8": {"stimulus": 79, "trial": 8, "rt": 822, "response": "Beta"}, "78": {"stimulus": 53, "trial": 78, "rt": 802, "response": "Beta"}, "51": {"stimulus": 75, "trial": 51, "rt": 419, "response": "Beta"}, "39": {"stimulus": 21, "trial": 39, "rt": 708, "response": "Alpha"}, "65": {"stimulus": 72, "trial": 65, "rt": 674, "response": "Beta"}, "76": {"stimulus": 71, "trial": 76, "rt": 677, "response": "Beta"}, "75": {"stimulus": 19, "trial": 75, "rt": 653, "response": "Alpha"}, "38": {"stimulus": 55, "trial": 38, "rt": 498, "response": "Beta"}, "73": {"stimulus": 42, "trial": 73, "rt": 757, "response": "Beta"}, "72": {"stimulus": 23, "trial": 72, "rt": 609, "response": "Alpha"}, "71": {"stimulus": 25, "trial": 71, "rt": 879, "response": "Alpha"}, "70": {"stimulus": 62, "trial": 70, "rt": 996, "response": "Beta"}, "59": {"stimulus": 29, "trial": 59, "rt": 942, "response": "Alpha"}, "79": {"stimulus": 54, "trial": 79, "rt": 846, "response": "Beta"}, "58": {"stimulus": 47, "trial": 58, "rt": 945, "response": "Beta"}, "11": {"stimulus": 74, "trial": 11, "rt": 671, "response": "Beta"}, "10": {"stimulus": 32, "trial": 10, "rt": 691, "response": "Alpha"}, "13": {"stimulus": 63, "trial": 13, "rt": 853, "response": "Beta"}, "12": {"stimulus": 28, "trial": 12, "rt": 994, "response": "Alpha"}, "15": {"stimulus": 30, "trial": 15, "rt": 1102, "response": "Alpha"}, "14": {"stimulus": 12, "trial": 14, "rt": 827, "response": "Alpha"}, "17": {"stimulus": 0, "trial": 17, "rt": 673, "response": "Beta"}, "16": {"stimulus": 8, "trial": 16, "rt": 1674, "response": "Beta"}, "19": {"stimulus": 77, "trial": 19, "rt": 720, "response": "Beta"}, "18": {"stimulus": 16, "trial": 18, "rt": 757, "response": "Alpha"}, "31": {"stimulus": 11, "trial": 31, "rt": 551, "response": "Alpha"}, "30": {"stimulus": 41, "trial": 30, "rt": 659, "response": "Alpha"}, "37": {"stimulus": 68, "trial": 37, "rt": 799, "response": "Beta"}, "36": {"stimulus": 13, "trial": 36, "rt": 645, "response": "Alpha"}, "35": {"stimulus": 51, "trial": 35, "rt": 488, "response": "Beta"}, "34": {"stimulus": 49, "trial": 34, "rt": 784, "response": "Beta"}, "33": {"stimulus": 22, "trial": 33, "rt": 512, "response": "Alpha"}, "55": {"stimulus": 3, "trial": 55, "rt": 1201, "response": "Beta"}, "74": {"stimulus": 7, "trial": 74, "rt": 1198, "response": "Beta"}, "32": {"stimulus": 34, "trial": 32, "rt": 577, "response": "Alpha"}, "57": {"stimulus": 2, "trial": 57, "rt": 596, "response": "Beta"}, "50": {"stimulus": 65, "trial": 50, "rt": 432, "response": "Beta"}}}