{"generation": {"1": {"stimulus": 45, "trial": 1, "rt": 12330}, "0": {"stimulus": 54, "trial": 0, "rt": 20057}, "3": {"stimulus": 63, "trial": 3, "rt": 5235}, "2": {"stimulus": 72, "trial": 2, "rt": 9754}}, "info": {"finish": 1482181659861, "participant": 103, "exposed": true, "lab": false, "start": 1482181448283, "counterbalance": 1, "condition": "Bottom", "browser": {"platform": "MacIntel", "userAgent": "Mozilla/5.0 (Macintosh; Intel Mac OS X 10_6_8) AppleWebKit/537.36 (KHTML, like Gecko) Chrome/49.0.2623.112 Safari/537.36"}}, "experiment": {"Paradigm": "TACL", "Stimuli": "Size-Color Squares", "Experiment": "Generating-Categories"}, "observation": {"11": {"stimulus": 32, "trial": 11, "rt": 900}, "10": {"stimulus": 14, "trial": 10, "rt": 996}, "1": {"stimulus": 32, "trial": 1, "rt": 1658}, "0": {"stimulus": 12, "trial": 0, "rt": 2148}, "3": {"stimulus": 30, "trial": 3, "rt": 1060}, "2": {"stimulus": 14, "trial": 2, "rt": 1027}, "5": {"stimulus": 30, "trial": 5, "rt": 931}, "4": {"stimulus": 14, "trial": 4, "rt": 915}, "7": {"stimulus": 32, "trial": 7, "rt": 875}, "6": {"stimulus": 12, "trial": 6, "rt": 844}, "9": {"stimulus": 12, "trial": 9, "rt": 971}, "8": {"stimulus": 30, "trial": 8, "rt": 860}}, "generalization": {"56": {"stimulus": 0, "trial": 56, "rt": 620, "response": "Alpha"}, "77": {"stimulus": 32, "trial": 77, "rt": 924, "response": "Alpha"}, "54": {"stimulus": 25, "trial": 54, "rt": 707, "response": "Alpha"}, "42": {"stimulus": 55, "trial": 42, "rt": 444, "response": "Alpha"}, "48": {"stimulus": 59, "trial": 48, "rt": 779, "response": "Beta"}, "43": {"stimulus": 50, "trial": 43, "rt": 371, "response": "Alpha"}, "60": {"stimulus": 56, "trial": 60, "rt": 771, "response": "Alpha"}, "61": {"stimulus": 41, "trial": 61, "rt": 787, "response": "Alpha"}, "62": {"stimulus": 74, "trial": 62, "rt": 331, "response": "Alpha"}, "63": {"stimulus": 54, "trial": 63, "rt": 835, "response": "Beta"}, "64": {"stimulus": 22, "trial": 64, "rt": 611, "response": "Alpha"}, "49": {"stimulus": 64, "trial": 49, "rt": 515, "response": "Beta"}, "66": {"stimulus": 2, "trial": 66, "rt": 475, "response": "Alpha"}, "67": {"stimulus": 9, "trial": 67, "rt": 627, "response": "Alpha"}, "68": {"stimulus": 20, "trial": 68, "rt": 483, "response": "Alpha"}, "69": {"stimulus": 11, "trial": 69, "rt": 499, "response": "Alpha"}, "80": {"stimulus": 31, "trial": 80, "rt": 563, "response": "Alpha"}, "52": {"stimulus": 26, "trial": 52, "rt": 483, "response": "Alpha"}, "53": {"stimulus": 66, "trial": 53, "rt": 771, "response": "Beta"}, "24": {"stimulus": 3, "trial": 24, "rt": 827, "response": "Alpha"}, "25": {"stimulus": 14, "trial": 25, "rt": 1211, "response": "Alpha"}, "26": {"stimulus": 16, "trial": 26, "rt": 476, "response": "Alpha"}, "27": {"stimulus": 42, "trial": 27, "rt": 947, "response": "Alpha"}, "20": {"stimulus": 65, "trial": 20, "rt": 625, "response": "Beta"}, "21": {"stimulus": 77, "trial": 21, "rt": 796, "response": "Beta"}, "22": {"stimulus": 62, "trial": 22, "rt": 787, "response": "Alpha"}, "23": {"stimulus": 78, "trial": 23, "rt": 819, "response": "Alpha"}, "46": {"stimulus": 80, "trial": 46, "rt": 715, "response": "Beta"}, "47": {"stimulus": 61, "trial": 47, "rt": 955, "response": "Beta"}, "44": {"stimulus": 6, "trial": 44, "rt": 915, "response": "Alpha"}, "45": {"stimulus": 53, "trial": 45, "rt": 659, "response": "Alpha"}, "28": {"stimulus": 63, "trial": 28, "rt": 995, "response": "Beta"}, "29": {"stimulus": 57, "trial": 29, "rt": 2530, "response": "Alpha"}, "40": {"stimulus": 28, "trial": 40, "rt": 1780, "response": "Alpha"}, "41": {"stimulus": 51, "trial": 41, "rt": 740, "response": "Alpha"}, "1": {"stimulus": 36, "trial": 1, "rt": 555, "response": "Alpha"}, "0": {"stimulus": 27, "trial": 0, "rt": 1114, "response": "Alpha"}, "3": {"stimulus": 58, "trial": 3, "rt": 899, "response": "Beta"}, "2": {"stimulus": 21, "trial": 2, "rt": 660, "response": "Alpha"}, "5": {"stimulus": 40, "trial": 5, "rt": 483, "response": "Alpha"}, "4": {"stimulus": 15, "trial": 4, "rt": 987, "response": "Alpha"}, "7": {"stimulus": 12, "trial": 7, "rt": 499, "response": "Alpha"}, "6": {"stimulus": 79, "trial": 6, "rt": 659, "response": "Beta"}, "9": {"stimulus": 23, "trial": 9, "rt": 491, "response": "Alpha"}, "8": {"stimulus": 73, "trial": 8, "rt": 643, "response": "Beta"}, "78": {"stimulus": 68, "trial": 78, "rt": 875, "response": "Beta"}, "51": {"stimulus": 46, "trial": 51, "rt": 675, "response": "Alpha"}, "39": {"stimulus": 24, "trial": 39, "rt": 755, "response": "Alpha"}, "65": {"stimulus": 38, "trial": 65, "rt": 491, "response": "Alpha"}, "76": {"stimulus": 1, "trial": 76, "rt": 596, "response": "Alpha"}, "75": {"stimulus": 4, "trial": 75, "rt": 1220, "response": "Alpha"}, "38": {"stimulus": 10, "trial": 38, "rt": 627, "response": "Alpha"}, "73": {"stimulus": 30, "trial": 73, "rt": 748, "response": "Alpha"}, "72": {"stimulus": 45, "trial": 72, "rt": 1275, "response": "Alpha"}, "71": {"stimulus": 76, "trial": 71, "rt": 931, "response": "Beta"}, "70": {"stimulus": 43, "trial": 70, "rt": 475, "response": "Alpha"}, "59": {"stimulus": 47, "trial": 59, "rt": 779, "response": "Alpha"}, "79": {"stimulus": 37, "trial": 79, "rt": 1068, "response": "Alpha"}, "58": {"stimulus": 13, "trial": 58, "rt": 436, "response": "Alpha"}, "11": {"stimulus": 67, "trial": 11, "rt": 779, "response": "Beta"}, "10": {"stimulus": 8, "trial": 10, "rt": 595, "response": "Alpha"}, "13": {"stimulus": 7, "trial": 13, "rt": 875, "response": "Alpha"}, "12": {"stimulus": 60, "trial": 12, "rt": 1803, "response": "Beta"}, "15": {"stimulus": 35, "trial": 15, "rt": 460, "response": "Alpha"}, "14": {"stimulus": 52, "trial": 14, "rt": 963, "response": "Alpha"}, "17": {"stimulus": 5, "trial": 17, "rt": 652, "response": "Alpha"}, "16": {"stimulus": 69, "trial": 16, "rt": 708, "response": "Beta"}, "19": {"stimulus": 33, "trial": 19, "rt": 518, "response": "Alpha"}, "18": {"stimulus": 39, "trial": 18, "rt": 516, "response": "Alpha"}, "31": {"stimulus": 49, "trial": 31, "rt": 595, "response": "Alpha"}, "30": {"stimulus": 70, "trial": 30, "rt": 6563, "response": "Beta"}, "37": {"stimulus": 19, "trial": 37, "rt": 707, "response": "Alpha"}, "36": {"stimulus": 48, "trial": 36, "rt": 1011, "response": "Alpha"}, "35": {"stimulus": 29, "trial": 35, "rt": 675, "response": "Alpha"}, "34": {"stimulus": 75, "trial": 34, "rt": 899, "response": "Beta"}, "33": {"stimulus": 71, "trial": 33, "rt": 1403, "response": "Beta"}, "55": {"stimulus": 72, "trial": 55, "rt": 348, "response": "Alpha"}, "74": {"stimulus": 18, "trial": 74, "rt": 539, "response": "Alpha"}, "32": {"stimulus": 17, "trial": 32, "rt": 563, "response": "Alpha"}, "57": {"stimulus": 44, "trial": 57, "rt": 484, "response": "Alpha"}, "50": {"stimulus": 34, "trial": 50, "rt": 995, "response": "Alpha"}}}