{"generation": {"1": {"stimulus": 18, "trial": 1, "rt": 12403}, "0": {"stimulus": 0, "trial": 0, "rt": 7387}, "3": {"stimulus": 1, "trial": 3, "rt": 16907}, "2": {"stimulus": 9, "trial": 2, "rt": 15010}}, "info": {"finish": 1482181689404, "participant": 105, "exposed": true, "lab": false, "start": 1482181448391, "counterbalance": 4, "condition": "Middle", "browser": {"platform": "Win32", "userAgent": "Mozilla/5.0 (Windows NT 10.0; Win64; x64) AppleWebKit/537.36 (KHTML, like Gecko) Chrome/55.0.2883.87 Safari/537.36"}}, "experiment": {"Paradigm": "TACL", "Stimuli": "Size-Color Squares", "Experiment": "Generating-Categories"}, "observation": {"11": {"stimulus": 50, "trial": 11, "rt": 27930}, "10": {"stimulus": 48, "trial": 10, "rt": 1613}, "1": {"stimulus": 30, "trial": 1, "rt": 1811}, "0": {"stimulus": 50, "trial": 0, "rt": 2892}, "3": {"stimulus": 32, "trial": 3, "rt": 571}, "2": {"stimulus": 48, "trial": 2, "rt": 1876}, "5": {"stimulus": 32, "trial": 5, "rt": 1012}, "4": {"stimulus": 50, "trial": 4, "rt": 1608}, "7": {"stimulus": 30, "trial": 7, "rt": 1347}, "6": {"stimulus": 48, "trial": 6, "rt": 1117}, "9": {"stimulus": 30, "trial": 9, "rt": 972}, "8": {"stimulus": 32, "trial": 8, "rt": 1010}}, "generalization": {"56": {"stimulus": 4, "trial": 56, "rt": 396, "response": "Alpha"}, "77": {"stimulus": 44, "trial": 77, "rt": 394, "response": "Alpha"}, "54": {"stimulus": 5, "trial": 54, "rt": 930, "response": "Alpha"}, "42": {"stimulus": 30, "trial": 42, "rt": 604, "response": "Alpha"}, "48": {"stimulus": 7, "trial": 48, "rt": 500, "response": "Alpha"}, "43": {"stimulus": 23, "trial": 43, "rt": 461, "response": "Alpha"}, "60": {"stimulus": 58, "trial": 60, "rt": 471, "response": "Alpha"}, "61": {"stimulus": 3, "trial": 61, "rt": 835, "response": "Alpha"}, "62": {"stimulus": 55, "trial": 62, "rt": 516, "response": "Alpha"}, "63": {"stimulus": 1, "trial": 63, "rt": 1019, "response": "Beta"}, "64": {"stimulus": 16, "trial": 64, "rt": 828, "response": "Alpha"}, "49": {"stimulus": 35, "trial": 49, "rt": 508, "response": "Alpha"}, "66": {"stimulus": 20, "trial": 66, "rt": 797, "response": "Alpha"}, "67": {"stimulus": 12, "trial": 67, "rt": 1284, "response": "Alpha"}, "68": {"stimulus": 73, "trial": 68, "rt": 564, "response": "Alpha"}, "69": {"stimulus": 41, "trial": 69, "rt": 443, "response": "Alpha"}, "80": {"stimulus": 56, "trial": 80, "rt": 501, "response": "Alpha"}, "52": {"stimulus": 72, "trial": 52, "rt": 559, "response": "Alpha"}, "53": {"stimulus": 27, "trial": 53, "rt": 960, "response": "Alpha"}, "24": {"stimulus": 18, "trial": 24, "rt": 731, "response": "Alpha"}, "25": {"stimulus": 61, "trial": 25, "rt": 484, "response": "Alpha"}, "26": {"stimulus": 47, "trial": 26, "rt": 499, "response": "Alpha"}, "27": {"stimulus": 37, "trial": 27, "rt": 480, "response": "Alpha"}, "20": {"stimulus": 45, "trial": 20, "rt": 447, "response": "Alpha"}, "21": {"stimulus": 59, "trial": 21, "rt": 516, "response": "Alpha"}, "22": {"stimulus": 51, "trial": 22, "rt": 619, "response": "Alpha"}, "23": {"stimulus": 40, "trial": 23, "rt": 469, "response": "Alpha"}, "46": {"stimulus": 66, "trial": 46, "rt": 404, "response": "Alpha"}, "47": {"stimulus": 6, "trial": 47, "rt": 379, "response": "Alpha"}, "44": {"stimulus": 22, "trial": 44, "rt": 523, "response": "Alpha"}, "45": {"stimulus": 2, "trial": 45, "rt": 913, "response": "Beta"}, "28": {"stimulus": 49, "trial": 28, "rt": 500, "response": "Alpha"}, "29": {"stimulus": 71, "trial": 29, "rt": 443, "response": "Alpha"}, "40": {"stimulus": 62, "trial": 40, "rt": 523, "response": "Alpha"}, "41": {"stimulus": 43, "trial": 41, "rt": 524, "response": "Alpha"}, "1": {"stimulus": 38, "trial": 1, "rt": 907, "response": "Alpha"}, "0": {"stimulus": 57, "trial": 0, "rt": 1597, "response": "Alpha"}, "3": {"stimulus": 68, "trial": 3, "rt": 648, "response": "Alpha"}, "2": {"stimulus": 9, "trial": 2, "rt": 838, "response": "Beta"}, "5": {"stimulus": 34, "trial": 5, "rt": 956, "response": "Alpha"}, "4": {"stimulus": 50, "trial": 4, "rt": 700, "response": "Alpha"}, "7": {"stimulus": 17, "trial": 7, "rt": 461, "response": "Alpha"}, "6": {"stimulus": 60, "trial": 6, "rt": 443, "response": "Alpha"}, "9": {"stimulus": 15, "trial": 9, "rt": 788, "response": "Alpha"}, "8": {"stimulus": 39, "trial": 8, "rt": 1955, "response": "Alpha"}, "78": {"stimulus": 52, "trial": 78, "rt": 604, "response": "Alpha"}, "51": {"stimulus": 69, "trial": 51, "rt": 459, "response": "Alpha"}, "39": {"stimulus": 28, "trial": 39, "rt": 867, "response": "Alpha"}, "65": {"stimulus": 8, "trial": 65, "rt": 963, "response": "Alpha"}, "76": {"stimulus": 33, "trial": 76, "rt": 508, "response": "Alpha"}, "75": {"stimulus": 42, "trial": 75, "rt": 495, "response": "Alpha"}, "38": {"stimulus": 25, "trial": 38, "rt": 442, "response": "Alpha"}, "73": {"stimulus": 65, "trial": 73, "rt": 556, "response": "Alpha"}, "72": {"stimulus": 74, "trial": 72, "rt": 387, "response": "Alpha"}, "71": {"stimulus": 53, "trial": 71, "rt": 354, "response": "Alpha"}, "70": {"stimulus": 10, "trial": 70, "rt": 787, "response": "Beta"}, "59": {"stimulus": 76, "trial": 59, "rt": 484, "response": "Alpha"}, "79": {"stimulus": 67, "trial": 79, "rt": 378, "response": "Alpha"}, "58": {"stimulus": 11, "trial": 58, "rt": 707, "response": "Alpha"}, "11": {"stimulus": 21, "trial": 11, "rt": 669, "response": "Alpha"}, "10": {"stimulus": 24, "trial": 10, "rt": 524, "response": "Alpha"}, "13": {"stimulus": 77, "trial": 13, "rt": 850, "response": "Alpha"}, "12": {"stimulus": 46, "trial": 12, "rt": 2244, "response": "Alpha"}, "15": {"stimulus": 70, "trial": 15, "rt": 1380, "response": "Alpha"}, "14": {"stimulus": 63, "trial": 14, "rt": 2563, "response": "Alpha"}, "17": {"stimulus": 64, "trial": 17, "rt": 930, "response": "Alpha"}, "16": {"stimulus": 79, "trial": 16, "rt": 451, "response": "Alpha"}, "19": {"stimulus": 54, "trial": 19, "rt": 689, "response": "Alpha"}, "18": {"stimulus": 19, "trial": 18, "rt": 828, "response": "Alpha"}, "31": {"stimulus": 0, "trial": 31, "rt": 1275, "response": "Beta"}, "30": {"stimulus": 29, "trial": 30, "rt": 420, "response": "Alpha"}, "37": {"stimulus": 14, "trial": 37, "rt": 1741, "response": "Alpha"}, "36": {"stimulus": 31, "trial": 36, "rt": 518, "response": "Alpha"}, "35": {"stimulus": 78, "trial": 35, "rt": 528, "response": "Alpha"}, "34": {"stimulus": 36, "trial": 34, "rt": 929, "response": "Alpha"}, "33": {"stimulus": 80, "trial": 33, "rt": 877, "response": "Alpha"}, "55": {"stimulus": 32, "trial": 55, "rt": 402, "response": "Alpha"}, "74": {"stimulus": 48, "trial": 74, "rt": 563, "response": "Alpha"}, "32": {"stimulus": 75, "trial": 32, "rt": 583, "response": "Alpha"}, "57": {"stimulus": 26, "trial": 57, "rt": 418, "response": "Alpha"}, "50": {"stimulus": 13, "trial": 50, "rt": 809, "response": "Alpha"}}}