{"generation": {"1": {"stimulus": 46, "trial": 1, "rt": 40027}, "0": {"stimulus": 72, "trial": 0, "rt": 15322}, "3": {"stimulus": 9, "trial": 3, "rt": 4068}, "2": {"stimulus": 27, "trial": 2, "rt": 5588}}, "info": {"finish": 1482181859681, "participant": 106, "exposed": true, "lab": false, "start": 1482181449670, "counterbalance": 1, "condition": "Bottom", "browser": {"platform": "Win32", "userAgent": "Mozilla/5.0 (Windows NT 10.0; WOW64) AppleWebKit/537.36 (KHTML, like Gecko) Chrome/55.0.2883.87 Safari/537.36"}}, "experiment": {"Paradigm": "TACL", "Stimuli": "Size-Color Squares", "Experiment": "Generating-Categories"}, "observation": {"11": {"stimulus": 12, "trial": 11, "rt": 684}, "10": {"stimulus": 14, "trial": 10, "rt": 658}, "1": {"stimulus": 32, "trial": 1, "rt": 1236}, "0": {"stimulus": 12, "trial": 0, "rt": 2506}, "3": {"stimulus": 30, "trial": 3, "rt": 947}, "2": {"stimulus": 14, "trial": 2, "rt": 996}, "5": {"stimulus": 32, "trial": 5, "rt": 1212}, "4": {"stimulus": 12, "trial": 4, "rt": 737}, "7": {"stimulus": 30, "trial": 7, "rt": 3655}, "6": {"stimulus": 14, "trial": 6, "rt": 1116}, "9": {"stimulus": 30, "trial": 9, "rt": 685}, "8": {"stimulus": 32, "trial": 8, "rt": 950}}, "generalization": {"56": {"stimulus": 22, "trial": 56, "rt": 1582, "response": "Beta"}, "77": {"stimulus": 63, "trial": 77, "rt": 796, "response": "Alpha"}, "54": {"stimulus": 0, "trial": 54, "rt": 789, "response": "Alpha"}, "42": {"stimulus": 80, "trial": 42, "rt": 707, "response": "Beta"}, "48": {"stimulus": 23, "trial": 48, "rt": 956, "response": "Beta"}, "43": {"stimulus": 45, "trial": 43, "rt": 833, "response": "Alpha"}, "60": {"stimulus": 53, "trial": 60, "rt": 651, "response": "Beta"}, "61": {"stimulus": 72, "trial": 61, "rt": 836, "response": "Alpha"}, "62": {"stimulus": 73, "trial": 62, "rt": 460, "response": "Alpha"}, "63": {"stimulus": 24, "trial": 63, "rt": 738, "response": "Beta"}, "64": {"stimulus": 79, "trial": 64, "rt": 1066, "response": "Beta"}, "49": {"stimulus": 21, "trial": 49, "rt": 1051, "response": "Alpha"}, "66": {"stimulus": 75, "trial": 66, "rt": 691, "response": "Beta"}, "67": {"stimulus": 52, "trial": 67, "rt": 643, "response": "Beta"}, "68": {"stimulus": 2, "trial": 68, "rt": 763, "response": "Alpha"}, "69": {"stimulus": 9, "trial": 69, "rt": 411, "response": "Alpha"}, "80": {"stimulus": 33, "trial": 80, "rt": 1116, "response": "Beta"}, "52": {"stimulus": 51, "trial": 52, "rt": 972, "response": "Alpha"}, "53": {"stimulus": 41, "trial": 53, "rt": 1107, "response": "Beta"}, "24": {"stimulus": 1, "trial": 24, "rt": 804, "response": "Alpha"}, "25": {"stimulus": 65, "trial": 25, "rt": 505, "response": "Alpha"}, "26": {"stimulus": 68, "trial": 26, "rt": 808, "response": "Beta"}, "27": {"stimulus": 30, "trial": 27, "rt": 924, "response": "Alpha"}, "20": {"stimulus": 59, "trial": 20, "rt": 491, "response": "Beta"}, "21": {"stimulus": 34, "trial": 21, "rt": 482, "response": "Beta"}, "22": {"stimulus": 20, "trial": 22, "rt": 932, "response": "Alpha"}, "23": {"stimulus": 15, "trial": 23, "rt": 427, "response": "Alpha"}, "46": {"stimulus": 27, "trial": 46, "rt": 796, "response": "Beta"}, "47": {"stimulus": 36, "trial": 47, "rt": 1547, "response": "Alpha"}, "44": {"stimulus": 32, "trial": 44, "rt": 615, "response": "Alpha"}, "45": {"stimulus": 40, "trial": 45, "rt": 636, "response": "Alpha"}, "28": {"stimulus": 35, "trial": 28, "rt": 764, "response": "Beta"}, "29": {"stimulus": 5, "trial": 29, "rt": 563, "response": "Beta"}, "40": {"stimulus": 7, "trial": 40, "rt": 788, "response": "Beta"}, "41": {"stimulus": 4, "trial": 41, "rt": 465, "response": "Beta"}, "1": {"stimulus": 10, "trial": 1, "rt": 455, "response": "Alpha"}, "0": {"stimulus": 55, "trial": 0, "rt": 2466, "response": "Alpha"}, "3": {"stimulus": 28, "trial": 3, "rt": 882, "response": "Alpha"}, "2": {"stimulus": 76, "trial": 2, "rt": 1046, "response": "Beta"}, "5": {"stimulus": 70, "trial": 5, "rt": 699, "response": "Beta"}, "4": {"stimulus": 29, "trial": 4, "rt": 507, "response": "Alpha"}, "7": {"stimulus": 56, "trial": 7, "rt": 508, "response": "Alpha"}, "6": {"stimulus": 48, "trial": 6, "rt": 1532, "response": "Alpha"}, "9": {"stimulus": 62, "trial": 9, "rt": 539, "response": "Beta"}, "8": {"stimulus": 69, "trial": 8, "rt": 779, "response": "Beta"}, "78": {"stimulus": 13, "trial": 78, "rt": 803, "response": "Alpha"}, "51": {"stimulus": 37, "trial": 51, "rt": 676, "response": "Alpha"}, "39": {"stimulus": 66, "trial": 39, "rt": 788, "response": "Alpha"}, "65": {"stimulus": 49, "trial": 65, "rt": 692, "response": "Beta"}, "76": {"stimulus": 8, "trial": 76, "rt": 771, "response": "Beta"}, "75": {"stimulus": 74, "trial": 75, "rt": 788, "response": "Alpha"}, "38": {"stimulus": 61, "trial": 38, "rt": 1650, "response": "Beta"}, "73": {"stimulus": 25, "trial": 73, "rt": 988, "response": "Beta"}, "72": {"stimulus": 17, "trial": 72, "rt": 555, "response": "Beta"}, "71": {"stimulus": 42, "trial": 71, "rt": 635, "response": "Beta"}, "70": {"stimulus": 12, "trial": 70, "rt": 403, "response": "Alpha"}, "59": {"stimulus": 14, "trial": 59, "rt": 517, "response": "Alpha"}, "79": {"stimulus": 3, "trial": 79, "rt": 1740, "response": "Alpha"}, "58": {"stimulus": 18, "trial": 58, "rt": 1162, "response": "Alpha"}, "11": {"stimulus": 60, "trial": 11, "rt": 511, "response": "Beta"}, "10": {"stimulus": 78, "trial": 10, "rt": 2496, "response": "Beta"}, "13": {"stimulus": 64, "trial": 13, "rt": 616, "response": "Alpha"}, "12": {"stimulus": 57, "trial": 12, "rt": 815, "response": "Alpha"}, "15": {"stimulus": 54, "trial": 15, "rt": 1035, "response": "Alpha"}, "14": {"stimulus": 71, "trial": 14, "rt": 723, "response": "Beta"}, "17": {"stimulus": 58, "trial": 17, "rt": 634, "response": "Beta"}, "16": {"stimulus": 47, "trial": 16, "rt": 454, "response": "Alpha"}, "19": {"stimulus": 26, "trial": 19, "rt": 764, "response": "Beta"}, "18": {"stimulus": 39, "trial": 18, "rt": 970, "response": "Alpha"}, "31": {"stimulus": 6, "trial": 31, "rt": 563, "response": "Beta"}, "30": {"stimulus": 31, "trial": 30, "rt": 507, "response": "Beta"}, "37": {"stimulus": 38, "trial": 37, "rt": 14747, "response": "Alpha"}, "36": {"stimulus": 44, "trial": 36, "rt": 1236, "response": "Beta"}, "35": {"stimulus": 11, "trial": 35, "rt": 380, "response": "Alpha"}, "34": {"stimulus": 46, "trial": 34, "rt": 420, "response": "Alpha"}, "33": {"stimulus": 19, "trial": 33, "rt": 723, "response": "Alpha"}, "55": {"stimulus": 67, "trial": 55, "rt": 929, "response": "Beta"}, "74": {"stimulus": 16, "trial": 74, "rt": 411, "response": "Beta"}, "32": {"stimulus": 77, "trial": 32, "rt": 1195, "response": "Beta"}, "57": {"stimulus": 50, "trial": 57, "rt": 516, "response": "Beta"}, "50": {"stimulus": 43, "trial": 50, "rt": 741, "response": "Beta"}}}