{"generation": {"1": {"stimulus": 72, "trial": 1, "rt": 5449}, "0": {"stimulus": 80, "trial": 0, "rt": 17751}, "3": {"stimulus": 74, "trial": 3, "rt": 3050}, "2": {"stimulus": 78, "trial": 2, "rt": 3464}}, "info": {"finish": 1482181631668, "participant": 108, "exposed": true, "lab": false, "start": 1482181449980, "counterbalance": 0, "condition": "Bottom", "browser": {"platform": "Win32", "userAgent": "Mozilla/5.0 (Windows NT 6.1; WOW64) AppleWebKit/537.36 (KHTML, like Gecko) Chrome/54.0.2840.99 Safari/537.36"}}, "experiment": {"Paradigm": "TACL", "Stimuli": "Size-Color Squares", "Experiment": "Generating-Categories"}, "observation": {"11": {"stimulus": 32, "trial": 11, "rt": 1016}, "10": {"stimulus": 30, "trial": 10, "rt": 963}, "1": {"stimulus": 14, "trial": 1, "rt": 1494}, "0": {"stimulus": 30, "trial": 0, "rt": 2311}, "3": {"stimulus": 12, "trial": 3, "rt": 1225}, "2": {"stimulus": 32, "trial": 2, "rt": 1280}, "5": {"stimulus": 32, "trial": 5, "rt": 1107}, "4": {"stimulus": 12, "trial": 4, "rt": 1300}, "7": {"stimulus": 14, "trial": 7, "rt": 1034}, "6": {"stimulus": 30, "trial": 6, "rt": 1090}, "9": {"stimulus": 14, "trial": 9, "rt": 1093}, "8": {"stimulus": 12, "trial": 8, "rt": 1179}}, "generalization": {"56": {"stimulus": 53, "trial": 56, "rt": 1335, "response": "Alpha"}, "77": {"stimulus": 13, "trial": 77, "rt": 662, "response": "Alpha"}, "54": {"stimulus": 1, "trial": 54, "rt": 484, "response": "Alpha"}, "42": {"stimulus": 20, "trial": 42, "rt": 698, "response": "Alpha"}, "48": {"stimulus": 47, "trial": 48, "rt": 1399, "response": "Alpha"}, "43": {"stimulus": 4, "trial": 43, "rt": 655, "response": "Alpha"}, "60": {"stimulus": 17, "trial": 60, "rt": 476, "response": "Alpha"}, "61": {"stimulus": 5, "trial": 61, "rt": 441, "response": "Alpha"}, "62": {"stimulus": 7, "trial": 62, "rt": 432, "response": "Alpha"}, "63": {"stimulus": 43, "trial": 63, "rt": 701, "response": "Alpha"}, "64": {"stimulus": 46, "trial": 64, "rt": 635, "response": "Alpha"}, "49": {"stimulus": 67, "trial": 49, "rt": 658, "response": "Beta"}, "66": {"stimulus": 32, "trial": 66, "rt": 497, "response": "Alpha"}, "67": {"stimulus": 68, "trial": 67, "rt": 856, "response": "Beta"}, "68": {"stimulus": 38, "trial": 68, "rt": 632, "response": "Beta"}, "69": {"stimulus": 71, "trial": 69, "rt": 882, "response": "Beta"}, "80": {"stimulus": 29, "trial": 80, "rt": 565, "response": "Beta"}, "52": {"stimulus": 78, "trial": 52, "rt": 688, "response": "Beta"}, "53": {"stimulus": 28, "trial": 53, "rt": 955, "response": "Alpha"}, "24": {"stimulus": 19, "trial": 24, "rt": 832, "response": "Alpha"}, "25": {"stimulus": 59, "trial": 25, "rt": 825, "response": "Beta"}, "26": {"stimulus": 58, "trial": 26, "rt": 509, "response": "Beta"}, "27": {"stimulus": 40, "trial": 27, "rt": 547, "response": "Beta"}, "20": {"stimulus": 54, "trial": 20, "rt": 1811, "response": "Beta"}, "21": {"stimulus": 41, "trial": 21, "rt": 696, "response": "Beta"}, "22": {"stimulus": 55, "trial": 22, "rt": 592, "response": "Beta"}, "23": {"stimulus": 44, "trial": 23, "rt": 729, "response": "Beta"}, "46": {"stimulus": 50, "trial": 46, "rt": 1114, "response": "Alpha"}, "47": {"stimulus": 16, "trial": 47, "rt": 604, "response": "Alpha"}, "44": {"stimulus": 64, "trial": 44, "rt": 661, "response": "Beta"}, "45": {"stimulus": 49, "trial": 45, "rt": 695, "response": "Beta"}, "28": {"stimulus": 36, "trial": 28, "rt": 516, "response": "Beta"}, "29": {"stimulus": 63, "trial": 29, "rt": 1034, "response": "Beta"}, "40": {"stimulus": 24, "trial": 40, "rt": 591, "response": "Alpha"}, "41": {"stimulus": 77, "trial": 41, "rt": 778, "response": "Beta"}, "1": {"stimulus": 79, "trial": 1, "rt": 941, "response": "Beta"}, "0": {"stimulus": 48, "trial": 0, "rt": 2404, "response": "Alpha"}, "3": {"stimulus": 80, "trial": 3, "rt": 698, "response": "Beta"}, "2": {"stimulus": 26, "trial": 2, "rt": 782, "response": "Alpha"}, "5": {"stimulus": 18, "trial": 5, "rt": 717, "response": "Alpha"}, "4": {"stimulus": 75, "trial": 4, "rt": 889, "response": "Beta"}, "7": {"stimulus": 10, "trial": 7, "rt": 536, "response": "Alpha"}, "6": {"stimulus": 21, "trial": 6, "rt": 503, "response": "Alpha"}, "9": {"stimulus": 37, "trial": 9, "rt": 563, "response": "Beta"}, "8": {"stimulus": 57, "trial": 8, "rt": 749, "response": "Beta"}, "78": {"stimulus": 9, "trial": 78, "rt": 492, "response": "Alpha"}, "51": {"stimulus": 8, "trial": 51, "rt": 503, "response": "Alpha"}, "39": {"stimulus": 6, "trial": 39, "rt": 461, "response": "Alpha"}, "65": {"stimulus": 33, "trial": 65, "rt": 490, "response": "Alpha"}, "76": {"stimulus": 60, "trial": 76, "rt": 692, "response": "Beta"}, "75": {"stimulus": 0, "trial": 75, "rt": 762, "response": "Alpha"}, "38": {"stimulus": 15, "trial": 38, "rt": 651, "response": "Alpha"}, "73": {"stimulus": 70, "trial": 73, "rt": 715, "response": "Beta"}, "72": {"stimulus": 74, "trial": 72, "rt": 859, "response": "Beta"}, "71": {"stimulus": 42, "trial": 71, "rt": 748, "response": "Beta"}, "70": {"stimulus": 11, "trial": 70, "rt": 675, "response": "Alpha"}, "59": {"stimulus": 62, "trial": 59, "rt": 1307, "response": "Alpha"}, "79": {"stimulus": 66, "trial": 79, "rt": 690, "response": "Beta"}, "58": {"stimulus": 35, "trial": 58, "rt": 619, "response": "Alpha"}, "11": {"stimulus": 23, "trial": 11, "rt": 708, "response": "Alpha"}, "10": {"stimulus": 56, "trial": 10, "rt": 1684, "response": "Alpha"}, "13": {"stimulus": 3, "trial": 13, "rt": 576, "response": "Alpha"}, "12": {"stimulus": 27, "trial": 12, "rt": 758, "response": "Alpha"}, "15": {"stimulus": 12, "trial": 15, "rt": 574, "response": "Alpha"}, "14": {"stimulus": 39, "trial": 14, "rt": 782, "response": "Alpha"}, "17": {"stimulus": 45, "trial": 17, "rt": 617, "response": "Beta"}, "16": {"stimulus": 65, "trial": 16, "rt": 728, "response": "Beta"}, "19": {"stimulus": 2, "trial": 19, "rt": 747, "response": "Alpha"}, "18": {"stimulus": 52, "trial": 18, "rt": 686, "response": "Beta"}, "31": {"stimulus": 69, "trial": 31, "rt": 602, "response": "Beta"}, "30": {"stimulus": 72, "trial": 30, "rt": 530, "response": "Beta"}, "37": {"stimulus": 34, "trial": 37, "rt": 451, "response": "Alpha"}, "36": {"stimulus": 22, "trial": 36, "rt": 664, "response": "Alpha"}, "35": {"stimulus": 61, "trial": 35, "rt": 821, "response": "Beta"}, "34": {"stimulus": 14, "trial": 34, "rt": 472, "response": "Alpha"}, "33": {"stimulus": 31, "trial": 33, "rt": 724, "response": "Alpha"}, "55": {"stimulus": 30, "trial": 55, "rt": 664, "response": "Alpha"}, "74": {"stimulus": 51, "trial": 74, "rt": 534, "response": "Beta"}, "32": {"stimulus": 73, "trial": 32, "rt": 523, "response": "Beta"}, "57": {"stimulus": 76, "trial": 57, "rt": 651, "response": "Beta"}, "50": {"stimulus": 25, "trial": 50, "rt": 787, "response": "Alpha"}}}