{"generation": {"1": {"stimulus": 72, "trial": 1, "rt": 7652}, "0": {"stimulus": 80, "trial": 0, "rt": 12628}, "3": {"stimulus": 8, "trial": 3, "rt": 4174}, "2": {"stimulus": 0, "trial": 2, "rt": 15464}}, "info": {"finish": 1482174686297, "participant": 11, "exposed": true, "lab": false, "start": 1482174409960, "counterbalance": 2, "condition": "Bottom", "browser": {"platform": "Win32", "userAgent": "Mozilla/5.0 (Windows NT 6.1; Win64; x64) AppleWebKit/537.36 (KHTML, like Gecko) Chrome/55.0.2883.87 Safari/537.36"}}, "experiment": {"Paradigm": "TACL", "Stimuli": "Size-Color Squares", "Experiment": "Generating-Categories"}, "observation": {"11": {"stimulus": 30, "trial": 11, "rt": 818}, "10": {"stimulus": 12, "trial": 10, "rt": 944}, "1": {"stimulus": 32, "trial": 1, "rt": 2640}, "0": {"stimulus": 14, "trial": 0, "rt": 10618}, "3": {"stimulus": 30, "trial": 3, "rt": 1390}, "2": {"stimulus": 12, "trial": 2, "rt": 1113}, "5": {"stimulus": 14, "trial": 5, "rt": 1409}, "4": {"stimulus": 12, "trial": 4, "rt": 1076}, "7": {"stimulus": 30, "trial": 7, "rt": 983}, "6": {"stimulus": 32, "trial": 6, "rt": 1054}, "9": {"stimulus": 14, "trial": 9, "rt": 851}, "8": {"stimulus": 32, "trial": 8, "rt": 880}}, "generalization": {"56": {"stimulus": 51, "trial": 56, "rt": 632, "response": "Alpha"}, "77": {"stimulus": 78, "trial": 77, "rt": 936, "response": "Beta"}, "54": {"stimulus": 42, "trial": 54, "rt": 877, "response": "Alpha"}, "42": {"stimulus": 65, "trial": 42, "rt": 1322, "response": "Beta"}, "48": {"stimulus": 66, "trial": 48, "rt": 1059, "response": "Beta"}, "43": {"stimulus": 29, "trial": 43, "rt": 4658, "response": "Alpha"}, "60": {"stimulus": 73, "trial": 60, "rt": 810, "response": "Beta"}, "61": {"stimulus": 72, "trial": 61, "rt": 620, "response": "Beta"}, "62": {"stimulus": 75, "trial": 62, "rt": 708, "response": "Beta"}, "63": {"stimulus": 50, "trial": 63, "rt": 926, "response": "Alpha"}, "64": {"stimulus": 10, "trial": 64, "rt": 703, "response": "Alpha"}, "49": {"stimulus": 56, "trial": 49, "rt": 5659, "response": "Beta"}, "66": {"stimulus": 8, "trial": 66, "rt": 1124, "response": "Beta"}, "67": {"stimulus": 53, "trial": 67, "rt": 949, "response": "Alpha"}, "68": {"stimulus": 19, "trial": 68, "rt": 637, "response": "Alpha"}, "69": {"stimulus": 41, "trial": 69, "rt": 630, "response": "Alpha"}, "80": {"stimulus": 52, "trial": 80, "rt": 2048, "response": "Alpha"}, "52": {"stimulus": 16, "trial": 52, "rt": 1016, "response": "Alpha"}, "53": {"stimulus": 23, "trial": 53, "rt": 543, "response": "Alpha"}, "24": {"stimulus": 69, "trial": 24, "rt": 1109, "response": "Beta"}, "25": {"stimulus": 14, "trial": 25, "rt": 1076, "response": "Alpha"}, "26": {"stimulus": 37, "trial": 26, "rt": 1520, "response": "Alpha"}, "27": {"stimulus": 57, "trial": 27, "rt": 578, "response": "Alpha"}, "20": {"stimulus": 9, "trial": 20, "rt": 1292, "response": "Beta"}, "21": {"stimulus": 76, "trial": 21, "rt": 1150, "response": "Beta"}, "22": {"stimulus": 45, "trial": 22, "rt": 1331, "response": "Alpha"}, "23": {"stimulus": 34, "trial": 23, "rt": 720, "response": "Alpha"}, "46": {"stimulus": 47, "trial": 46, "rt": 931, "response": "Alpha"}, "47": {"stimulus": 28, "trial": 47, "rt": 1448, "response": "Alpha"}, "44": {"stimulus": 46, "trial": 44, "rt": 809, "response": "Alpha"}, "45": {"stimulus": 21, "trial": 45, "rt": 1027, "response": "Alpha"}, "28": {"stimulus": 79, "trial": 28, "rt": 749, "response": "Beta"}, "29": {"stimulus": 2, "trial": 29, "rt": 1270, "response": "Beta"}, "40": {"stimulus": 71, "trial": 40, "rt": 14427, "response": "Beta"}, "41": {"stimulus": 27, "trial": 41, "rt": 1663, "response": "Alpha"}, "1": {"stimulus": 60, "trial": 1, "rt": 4274, "response": "Alpha"}, "0": {"stimulus": 64, "trial": 0, "rt": 1920, "response": "Beta"}, "3": {"stimulus": 48, "trial": 3, "rt": 1882, "response": "Alpha"}, "2": {"stimulus": 68, "trial": 2, "rt": 1642, "response": "Alpha"}, "5": {"stimulus": 36, "trial": 5, "rt": 2727, "response": "Beta"}, "4": {"stimulus": 59, "trial": 4, "rt": 977, "response": "Alpha"}, "7": {"stimulus": 74, "trial": 7, "rt": 1133, "response": "Beta"}, "6": {"stimulus": 54, "trial": 6, "rt": 815, "response": "Beta"}, "9": {"stimulus": 25, "trial": 9, "rt": 649, "response": "Alpha"}, "8": {"stimulus": 26, "trial": 8, "rt": 1322, "response": "Alpha"}, "78": {"stimulus": 33, "trial": 78, "rt": 763, "response": "Alpha"}, "51": {"stimulus": 55, "trial": 51, "rt": 891, "response": "Beta"}, "39": {"stimulus": 43, "trial": 39, "rt": 1032, "response": "Alpha"}, "65": {"stimulus": 38, "trial": 65, "rt": 560, "response": "Alpha"}, "76": {"stimulus": 20, "trial": 76, "rt": 1666, "response": "Alpha"}, "75": {"stimulus": 77, "trial": 75, "rt": 869, "response": "Beta"}, "38": {"stimulus": 15, "trial": 38, "rt": 4285, "response": "Alpha"}, "73": {"stimulus": 62, "trial": 73, "rt": 1094, "response": "Alpha"}, "72": {"stimulus": 49, "trial": 72, "rt": 843, "response": "Alpha"}, "71": {"stimulus": 5, "trial": 71, "rt": 732, "response": "Beta"}, "70": {"stimulus": 30, "trial": 70, "rt": 678, "response": "Alpha"}, "59": {"stimulus": 70, "trial": 59, "rt": 2012, "response": "Beta"}, "79": {"stimulus": 6, "trial": 79, "rt": 780, "response": "Beta"}, "58": {"stimulus": 31, "trial": 58, "rt": 467, "response": "Alpha"}, "11": {"stimulus": 3, "trial": 11, "rt": 928, "response": "Beta"}, "10": {"stimulus": 39, "trial": 10, "rt": 1324, "response": "Alpha"}, "13": {"stimulus": 18, "trial": 13, "rt": 2042, "response": "Beta"}, "12": {"stimulus": 24, "trial": 12, "rt": 809, "response": "Alpha"}, "15": {"stimulus": 4, "trial": 15, "rt": 1542, "response": "Beta"}, "14": {"stimulus": 17, "trial": 14, "rt": 1294, "response": "Beta"}, "17": {"stimulus": 11, "trial": 17, "rt": 1078, "response": "Alpha"}, "16": {"stimulus": 7, "trial": 16, "rt": 1195, "response": "Beta"}, "19": {"stimulus": 61, "trial": 19, "rt": 1123, "response": "Alpha"}, "18": {"stimulus": 44, "trial": 18, "rt": 1292, "response": "Alpha"}, "31": {"stimulus": 40, "trial": 31, "rt": 719, "response": "Alpha"}, "30": {"stimulus": 67, "trial": 30, "rt": 1287, "response": "Alpha"}, "37": {"stimulus": 80, "trial": 37, "rt": 1077, "response": "Beta"}, "36": {"stimulus": 12, "trial": 36, "rt": 6107, "response": "Alpha"}, "35": {"stimulus": 63, "trial": 35, "rt": 1591, "response": "Beta"}, "34": {"stimulus": 1, "trial": 34, "rt": 999, "response": "Beta"}, "33": {"stimulus": 32, "trial": 33, "rt": 1297, "response": "Alpha"}, "55": {"stimulus": 58, "trial": 55, "rt": 844, "response": "Alpha"}, "74": {"stimulus": 35, "trial": 74, "rt": 541, "response": "Alpha"}, "32": {"stimulus": 0, "trial": 32, "rt": 991, "response": "Beta"}, "57": {"stimulus": 22, "trial": 57, "rt": 665, "response": "Alpha"}, "50": {"stimulus": 13, "trial": 50, "rt": 1118, "response": "Alpha"}}}