{"generation": {"1": {"stimulus": 72, "trial": 1, "rt": 9819}, "0": {"stimulus": 0, "trial": 0, "rt": 21290}, "3": {"stimulus": 8, "trial": 3, "rt": 5987}, "2": {"stimulus": 62, "trial": 2, "rt": 10160}}, "info": {"finish": 1482181893645, "participant": 112, "exposed": true, "lab": false, "start": 1482181453913, "counterbalance": 5, "condition": "Bottom", "browser": {"platform": "Win32", "userAgent": "Mozilla/5.0 (Windows NT 6.1; WOW64) AppleWebKit/537.36 (KHTML, like Gecko) Chrome/54.0.2840.99 Safari/537.36"}}, "experiment": {"Paradigm": "TACL", "Stimuli": "Size-Color Squares", "Experiment": "Generating-Categories"}, "observation": {"11": {"stimulus": 30, "trial": 11, "rt": 2245}, "10": {"stimulus": 32, "trial": 10, "rt": 3109}, "1": {"stimulus": 12, "trial": 1, "rt": 2035}, "0": {"stimulus": 32, "trial": 0, "rt": 2898}, "3": {"stimulus": 30, "trial": 3, "rt": 5973}, "2": {"stimulus": 14, "trial": 2, "rt": 2203}, "5": {"stimulus": 32, "trial": 5, "rt": 3086}, "4": {"stimulus": 12, "trial": 4, "rt": 1752}, "7": {"stimulus": 30, "trial": 7, "rt": 2404}, "6": {"stimulus": 14, "trial": 6, "rt": 7171}, "9": {"stimulus": 12, "trial": 9, "rt": 1845}, "8": {"stimulus": 14, "trial": 8, "rt": 1715}}, "generalization": {"56": {"stimulus": 42, "trial": 56, "rt": 1820, "response": "Beta"}, "77": {"stimulus": 47, "trial": 77, "rt": 652, "response": "Alpha"}, "54": {"stimulus": 12, "trial": 54, "rt": 1024, "response": "Alpha"}, "42": {"stimulus": 73, "trial": 42, "rt": 4308, "response": "Alpha"}, "48": {"stimulus": 15, "trial": 48, "rt": 679, "response": "Beta"}, "43": {"stimulus": 28, "trial": 43, "rt": 1428, "response": "Alpha"}, "60": {"stimulus": 19, "trial": 60, "rt": 852, "response": "Alpha"}, "61": {"stimulus": 50, "trial": 61, "rt": 5266, "response": "Beta"}, "62": {"stimulus": 61, "trial": 62, "rt": 749, "response": "Beta"}, "63": {"stimulus": 0, "trial": 63, "rt": 2019, "response": "Beta"}, "64": {"stimulus": 48, "trial": 64, "rt": 1051, "response": "Alpha"}, "49": {"stimulus": 58, "trial": 49, "rt": 1849, "response": "Alpha"}, "66": {"stimulus": 38, "trial": 66, "rt": 743, "response": "Alpha"}, "67": {"stimulus": 57, "trial": 67, "rt": 972, "response": "Alpha"}, "68": {"stimulus": 79, "trial": 68, "rt": 1028, "response": "Beta"}, "69": {"stimulus": 39, "trial": 69, "rt": 1332, "response": "Alpha"}, "80": {"stimulus": 66, "trial": 80, "rt": 1017, "response": "Alpha"}, "52": {"stimulus": 23, "trial": 52, "rt": 1403, "response": "Beta"}, "53": {"stimulus": 67, "trial": 53, "rt": 1311, "response": "Alpha"}, "24": {"stimulus": 4, "trial": 24, "rt": 2495, "response": "Alpha"}, "25": {"stimulus": 35, "trial": 25, "rt": 6092, "response": "Beta"}, "26": {"stimulus": 71, "trial": 26, "rt": 851, "response": "Beta"}, "27": {"stimulus": 69, "trial": 27, "rt": 1999, "response": "Beta"}, "20": {"stimulus": 1, "trial": 20, "rt": 5370, "response": "Alpha"}, "21": {"stimulus": 37, "trial": 21, "rt": 1618, "response": "Alpha"}, "22": {"stimulus": 70, "trial": 22, "rt": 2620, "response": "Beta"}, "23": {"stimulus": 34, "trial": 23, "rt": 1602, "response": "Beta"}, "46": {"stimulus": 76, "trial": 46, "rt": 746, "response": "Alpha"}, "47": {"stimulus": 78, "trial": 47, "rt": 1260, "response": "Beta"}, "44": {"stimulus": 40, "trial": 44, "rt": 881, "response": "Alpha"}, "45": {"stimulus": 13, "trial": 45, "rt": 757, "response": "Alpha"}, "28": {"stimulus": 33, "trial": 28, "rt": 1560, "response": "Beta"}, "29": {"stimulus": 77, "trial": 29, "rt": 4541, "response": "Alpha"}, "40": {"stimulus": 14, "trial": 40, "rt": 1744, "response": "Alpha"}, "41": {"stimulus": 16, "trial": 41, "rt": 899, "response": "Beta"}, "1": {"stimulus": 63, "trial": 1, "rt": 2081, "response": "Beta"}, "0": {"stimulus": 41, "trial": 0, "rt": 2402, "response": "Alpha"}, "3": {"stimulus": 43, "trial": 3, "rt": 1739, "response": "Beta"}, "2": {"stimulus": 6, "trial": 2, "rt": 3845, "response": "Beta"}, "5": {"stimulus": 72, "trial": 5, "rt": 1841, "response": "Beta"}, "4": {"stimulus": 36, "trial": 4, "rt": 1429, "response": "Beta"}, "7": {"stimulus": 20, "trial": 7, "rt": 1117, "response": "Alpha"}, "6": {"stimulus": 30, "trial": 6, "rt": 1204, "response": "Alpha"}, "9": {"stimulus": 56, "trial": 9, "rt": 1204, "response": "Alpha"}, "8": {"stimulus": 75, "trial": 8, "rt": 1064, "response": "Alpha"}, "78": {"stimulus": 49, "trial": 78, "rt": 726, "response": "Alpha"}, "51": {"stimulus": 22, "trial": 51, "rt": 699, "response": "Alpha"}, "39": {"stimulus": 45, "trial": 39, "rt": 1150, "response": "Beta"}, "65": {"stimulus": 11, "trial": 65, "rt": 875, "response": "Alpha"}, "76": {"stimulus": 10, "trial": 76, "rt": 780, "response": "Alpha"}, "75": {"stimulus": 29, "trial": 75, "rt": 1220, "response": "Alpha"}, "38": {"stimulus": 21, "trial": 38, "rt": 922, "response": "Alpha"}, "73": {"stimulus": 32, "trial": 73, "rt": 1889, "response": "Alpha"}, "72": {"stimulus": 51, "trial": 72, "rt": 3597, "response": "Beta"}, "71": {"stimulus": 62, "trial": 71, "rt": 1038, "response": "Beta"}, "70": {"stimulus": 74, "trial": 70, "rt": 1578, "response": "Alpha"}, "59": {"stimulus": 46, "trial": 59, "rt": 901, "response": "Alpha"}, "79": {"stimulus": 17, "trial": 79, "rt": 848, "response": "Beta"}, "58": {"stimulus": 65, "trial": 58, "rt": 1107, "response": "Alpha"}, "11": {"stimulus": 31, "trial": 11, "rt": 1115, "response": "Alpha"}, "10": {"stimulus": 27, "trial": 10, "rt": 1487, "response": "Beta"}, "13": {"stimulus": 53, "trial": 13, "rt": 1603, "response": "Beta"}, "12": {"stimulus": 55, "trial": 12, "rt": 4515, "response": "Alpha"}, "15": {"stimulus": 5, "trial": 15, "rt": 1909, "response": "Alpha"}, "14": {"stimulus": 7, "trial": 14, "rt": 1540, "response": "Beta"}, "17": {"stimulus": 60, "trial": 17, "rt": 1411, "response": "Beta"}, "16": {"stimulus": 25, "trial": 16, "rt": 1251, "response": "Beta"}, "19": {"stimulus": 54, "trial": 19, "rt": 1668, "response": "Beta"}, "18": {"stimulus": 44, "trial": 18, "rt": 998, "response": "Beta"}, "31": {"stimulus": 24, "trial": 31, "rt": 1246, "response": "Beta"}, "30": {"stimulus": 52, "trial": 30, "rt": 1108, "response": "Beta"}, "37": {"stimulus": 68, "trial": 37, "rt": 1172, "response": "Alpha"}, "36": {"stimulus": 18, "trial": 36, "rt": 1436, "response": "Beta"}, "35": {"stimulus": 26, "trial": 35, "rt": 1013, "response": "Beta"}, "34": {"stimulus": 59, "trial": 34, "rt": 1170, "response": "Alpha"}, "33": {"stimulus": 80, "trial": 33, "rt": 1011, "response": "Beta"}, "55": {"stimulus": 2, "trial": 55, "rt": 1708, "response": "Alpha"}, "74": {"stimulus": 8, "trial": 74, "rt": 1299, "response": "Beta"}, "32": {"stimulus": 64, "trial": 32, "rt": 954, "response": "Alpha"}, "57": {"stimulus": 9, "trial": 57, "rt": 1003, "response": "Beta"}, "50": {"stimulus": 3, "trial": 50, "rt": 942, "response": "Alpha"}}}