{"generation": {"1": {"stimulus": 59, "trial": 1, "rt": 4920}, "0": {"stimulus": 73, "trial": 0, "rt": 8486}, "3": {"stimulus": 66, "trial": 3, "rt": 4576}, "2": {"stimulus": 72, "trial": 2, "rt": 3306}}, "info": {"participant": 114, "exposed": true, "lab": false, "start": 1482181427475, "counterbalance": 1, "condition": "Bottom", "browser": {"platform": "Win32", "userAgent": "Mozilla/5.0 (Windows NT 10.0; Win64; x64) AppleWebKit/537.36 (KHTML, like Gecko) Chrome/55.0.2883.87 Safari/537.36"}}, "experiment": {"Paradigm": "TACL", "Stimuli": "Size-Color Squares", "Experiment": "Generating-Categories"}, "observation": {"11": {"stimulus": 12, "trial": 11, "rt": 1004}, "10": {"stimulus": 32, "trial": 10, "rt": 1154}, "1": {"stimulus": 12, "trial": 1, "rt": 2128}, "0": {"stimulus": 32, "trial": 0, "rt": 250901}, "3": {"stimulus": 14, "trial": 3, "rt": 1818}, "2": {"stimulus": 30, "trial": 2, "rt": 16566}, "5": {"stimulus": 32, "trial": 5, "rt": 1127}, "4": {"stimulus": 14, "trial": 4, "rt": 1867}, "7": {"stimulus": 30, "trial": 7, "rt": 1021}, "6": {"stimulus": 12, "trial": 6, "rt": 1213}, "9": {"stimulus": 14, "trial": 9, "rt": 1181}, "8": {"stimulus": 30, "trial": 8, "rt": 1060}}, "generalization": {"56": {"stimulus": 71, "trial": 56, "rt": 546, "response": "Beta"}, "77": {"stimulus": 56, "trial": 77, "rt": 949, "response": "Beta"}, "54": {"stimulus": 62, "trial": 54, "rt": 554, "response": "Beta"}, "42": {"stimulus": 36, "trial": 42, "rt": 589, "response": "Alpha"}, "48": {"stimulus": 8, "trial": 48, "rt": 536, "response": "Alpha"}, "43": {"stimulus": 33, "trial": 43, "rt": 493, "response": "Alpha"}, "60": {"stimulus": 57, "trial": 60, "rt": 555, "response": "Beta"}, "61": {"stimulus": 35, "trial": 61, "rt": 598, "response": "Alpha"}, "62": {"stimulus": 38, "trial": 62, "rt": 814, "response": "Alpha"}, "63": {"stimulus": 24, "trial": 63, "rt": 563, "response": "Alpha"}, "64": {"stimulus": 43, "trial": 64, "rt": 627, "response": "Alpha"}, "49": {"stimulus": 61, "trial": 49, "rt": 816, "response": "Beta"}, "66": {"stimulus": 3, "trial": 66, "rt": 1147, "response": "Alpha"}, "67": {"stimulus": 65, "trial": 67, "rt": 620, "response": "Beta"}, "68": {"stimulus": 7, "trial": 68, "rt": 697, "response": "Alpha"}, "69": {"stimulus": 0, "trial": 69, "rt": 715, "response": "Alpha"}, "80": {"stimulus": 12, "trial": 80, "rt": 688, "response": "Alpha"}, "52": {"stimulus": 39, "trial": 52, "rt": 690, "response": "Alpha"}, "53": {"stimulus": 55, "trial": 53, "rt": 690, "response": "Beta"}, "24": {"stimulus": 20, "trial": 24, "rt": 770, "response": "Alpha"}, "25": {"stimulus": 18, "trial": 25, "rt": 697, "response": "Alpha"}, "26": {"stimulus": 79, "trial": 26, "rt": 717, "response": "Beta"}, "27": {"stimulus": 74, "trial": 27, "rt": 573, "response": "Beta"}, "20": {"stimulus": 34, "trial": 20, "rt": 691, "response": "Alpha"}, "21": {"stimulus": 60, "trial": 21, "rt": 520, "response": "Beta"}, "22": {"stimulus": 31, "trial": 22, "rt": 646, "response": "Alpha"}, "23": {"stimulus": 51, "trial": 23, "rt": 618, "response": "Beta"}, "46": {"stimulus": 42, "trial": 46, "rt": 662, "response": "Beta"}, "47": {"stimulus": 15, "trial": 47, "rt": 412, "response": "Alpha"}, "44": {"stimulus": 52, "trial": 44, "rt": 1217, "response": "Beta"}, "45": {"stimulus": 9, "trial": 45, "rt": 483, "response": "Alpha"}, "28": {"stimulus": 45, "trial": 28, "rt": 1032, "response": "Alpha"}, "29": {"stimulus": 16, "trial": 29, "rt": 661, "response": "Alpha"}, "40": {"stimulus": 64, "trial": 40, "rt": 510, "response": "Beta"}, "41": {"stimulus": 75, "trial": 41, "rt": 609, "response": "Beta"}, "1": {"stimulus": 6, "trial": 1, "rt": 1158, "response": "Alpha"}, "0": {"stimulus": 37, "trial": 0, "rt": 1969, "response": "Alpha"}, "3": {"stimulus": 63, "trial": 3, "rt": 1570, "response": "Beta"}, "2": {"stimulus": 70, "trial": 2, "rt": 1125, "response": "Beta"}, "5": {"stimulus": 11, "trial": 5, "rt": 815, "response": "Alpha"}, "4": {"stimulus": 27, "trial": 4, "rt": 1409, "response": "Alpha"}, "7": {"stimulus": 14, "trial": 7, "rt": 717, "response": "Alpha"}, "6": {"stimulus": 40, "trial": 6, "rt": 870, "response": "Beta"}, "9": {"stimulus": 1, "trial": 9, "rt": 735, "response": "Alpha"}, "8": {"stimulus": 4, "trial": 8, "rt": 656, "response": "Alpha"}, "78": {"stimulus": 66, "trial": 78, "rt": 1307, "response": "Alpha"}, "51": {"stimulus": 80, "trial": 51, "rt": 511, "response": "Beta"}, "39": {"stimulus": 76, "trial": 39, "rt": 440, "response": "Beta"}, "65": {"stimulus": 13, "trial": 65, "rt": 922, "response": "Alpha"}, "76": {"stimulus": 77, "trial": 76, "rt": 673, "response": "Beta"}, "75": {"stimulus": 32, "trial": 75, "rt": 696, "response": "Alpha"}, "38": {"stimulus": 68, "trial": 38, "rt": 546, "response": "Beta"}, "73": {"stimulus": 50, "trial": 73, "rt": 759, "response": "Beta"}, "72": {"stimulus": 30, "trial": 72, "rt": 707, "response": "Alpha"}, "71": {"stimulus": 2, "trial": 71, "rt": 589, "response": "Alpha"}, "70": {"stimulus": 19, "trial": 70, "rt": 583, "response": "Alpha"}, "59": {"stimulus": 48, "trial": 59, "rt": 914, "response": "Beta"}, "79": {"stimulus": 10, "trial": 79, "rt": 903, "response": "Alpha"}, "58": {"stimulus": 23, "trial": 58, "rt": 625, "response": "Alpha"}, "11": {"stimulus": 22, "trial": 11, "rt": 789, "response": "Alpha"}, "10": {"stimulus": 67, "trial": 10, "rt": 637, "response": "Beta"}, "13": {"stimulus": 47, "trial": 13, "rt": 656, "response": "Beta"}, "12": {"stimulus": 46, "trial": 12, "rt": 957, "response": "Beta"}, "15": {"stimulus": 41, "trial": 15, "rt": 957, "response": "Beta"}, "14": {"stimulus": 58, "trial": 14, "rt": 728, "response": "Beta"}, "17": {"stimulus": 78, "trial": 17, "rt": 575, "response": "Beta"}, "16": {"stimulus": 49, "trial": 16, "rt": 653, "response": "Beta"}, "19": {"stimulus": 53, "trial": 19, "rt": 547, "response": "Beta"}, "18": {"stimulus": 59, "trial": 18, "rt": 502, "response": "Beta"}, "31": {"stimulus": 69, "trial": 31, "rt": 834, "response": "Beta"}, "30": {"stimulus": 21, "trial": 30, "rt": 752, "response": "Alpha"}, "37": {"stimulus": 29, "trial": 37, "rt": 511, "response": "Alpha"}, "36": {"stimulus": 26, "trial": 36, "rt": 616, "response": "Alpha"}, "35": {"stimulus": 44, "trial": 35, "rt": 923, "response": "Alpha"}, "34": {"stimulus": 73, "trial": 34, "rt": 582, "response": "Beta"}, "33": {"stimulus": 54, "trial": 33, "rt": 4947, "response": "Beta"}, "55": {"stimulus": 17, "trial": 55, "rt": 734, "response": "Alpha"}, "74": {"stimulus": 28, "trial": 74, "rt": 707, "response": "Alpha"}, "32": {"stimulus": 5, "trial": 32, "rt": 822, "response": "Alpha"}, "57": {"stimulus": 25, "trial": 57, "rt": 591, "response": "Alpha"}, "50": {"stimulus": 72, "trial": 50, "rt": 759, "response": "Beta"}}}59, "response": "Beta"}}}