{"generation": {"1": {"stimulus": 80, "trial": 1, "rt": 5018}, "0": {"stimulus": 0, "trial": 0, "rt": 11210}, "3": {"stimulus": 72, "trial": 3, "rt": 35378}, "2": {"stimulus": 16, "trial": 2, "rt": 7539}}, "info": {"finish": 1482181773442, "participant": 115, "exposed": true, "lab": false, "start": 1482181452495, "counterbalance": 4, "condition": "Bottom", "browser": {"platform": "Win32", "userAgent": "Mozilla/5.0 (Windows NT 10.0; WOW64) AppleWebKit/537.36 (KHTML, like Gecko) Chrome/55.0.2883.87 Safari/537.36"}}, "experiment": {"Paradigm": "TACL", "Stimuli": "Size-Color Squares", "Experiment": "Generating-Categories"}, "observation": {"11": {"stimulus": 32, "trial": 11, "rt": 882}, "10": {"stimulus": 12, "trial": 10, "rt": 905}, "1": {"stimulus": 12, "trial": 1, "rt": 1578}, "0": {"stimulus": 14, "trial": 0, "rt": 3054}, "3": {"stimulus": 32, "trial": 3, "rt": 1075}, "2": {"stimulus": 30, "trial": 2, "rt": 1820}, "5": {"stimulus": 30, "trial": 5, "rt": 1074}, "4": {"stimulus": 32, "trial": 4, "rt": 1122}, "7": {"stimulus": 12, "trial": 7, "rt": 1067}, "6": {"stimulus": 14, "trial": 6, "rt": 1178}, "9": {"stimulus": 30, "trial": 9, "rt": 1002}, "8": {"stimulus": 14, "trial": 8, "rt": 979}}, "generalization": {"56": {"stimulus": 70, "trial": 56, "rt": 859, "response": "Alpha"}, "77": {"stimulus": 74, "trial": 77, "rt": 1499, "response": "Beta"}, "54": {"stimulus": 4, "trial": 54, "rt": 211, "response": "Beta"}, "42": {"stimulus": 65, "trial": 42, "rt": 386, "response": "Beta"}, "48": {"stimulus": 53, "trial": 48, "rt": 450, "response": "Beta"}, "43": {"stimulus": 49, "trial": 43, "rt": 835, "response": "Beta"}, "60": {"stimulus": 31, "trial": 60, "rt": 619, "response": "Alpha"}, "61": {"stimulus": 75, "trial": 61, "rt": 491, "response": "Beta"}, "62": {"stimulus": 5, "trial": 62, "rt": 628, "response": "Alpha"}, "63": {"stimulus": 37, "trial": 63, "rt": 491, "response": "Beta"}, "64": {"stimulus": 72, "trial": 64, "rt": 763, "response": "Beta"}, "49": {"stimulus": 22, "trial": 49, "rt": 722, "response": "Beta"}, "66": {"stimulus": 79, "trial": 66, "rt": 987, "response": "Beta"}, "67": {"stimulus": 58, "trial": 67, "rt": 826, "response": "Alpha"}, "68": {"stimulus": 34, "trial": 68, "rt": 779, "response": "Alpha"}, "69": {"stimulus": 25, "trial": 69, "rt": 851, "response": "Alpha"}, "80": {"stimulus": 27, "trial": 80, "rt": 1051, "response": "Beta"}, "52": {"stimulus": 64, "trial": 52, "rt": 435, "response": "Alpha"}, "53": {"stimulus": 42, "trial": 53, "rt": 387, "response": "Beta"}, "24": {"stimulus": 71, "trial": 24, "rt": 1107, "response": "Beta"}, "25": {"stimulus": 30, "trial": 25, "rt": 802, "response": "Alpha"}, "26": {"stimulus": 66, "trial": 26, "rt": 634, "response": "Beta"}, "27": {"stimulus": 47, "trial": 27, "rt": 778, "response": "Beta"}, "20": {"stimulus": 11, "trial": 20, "rt": 1058, "response": "Alpha"}, "21": {"stimulus": 62, "trial": 21, "rt": 658, "response": "Beta"}, "22": {"stimulus": 13, "trial": 22, "rt": 898, "response": "Alpha"}, "23": {"stimulus": 46, "trial": 23, "rt": 1427, "response": "Beta"}, "46": {"stimulus": 14, "trial": 46, "rt": 812, "response": "Alpha"}, "47": {"stimulus": 32, "trial": 47, "rt": 896, "response": "Alpha"}, "44": {"stimulus": 67, "trial": 44, "rt": 562, "response": "Beta"}, "45": {"stimulus": 9, "trial": 45, "rt": 603, "response": "Beta"}, "28": {"stimulus": 51, "trial": 28, "rt": 595, "response": "Beta"}, "29": {"stimulus": 8, "trial": 29, "rt": 523, "response": "Beta"}, "40": {"stimulus": 6, "trial": 40, "rt": 419, "response": "Beta"}, "41": {"stimulus": 35, "trial": 41, "rt": 411, "response": "Alpha"}, "1": {"stimulus": 48, "trial": 1, "rt": 611, "response": "Beta"}, "0": {"stimulus": 55, "trial": 0, "rt": 2521, "response": "Beta"}, "3": {"stimulus": 45, "trial": 3, "rt": 834, "response": "Beta"}, "2": {"stimulus": 40, "trial": 2, "rt": 658, "response": "Alpha"}, "5": {"stimulus": 54, "trial": 5, "rt": 458, "response": "Beta"}, "4": {"stimulus": 57, "trial": 4, "rt": 682, "response": "Beta"}, "7": {"stimulus": 52, "trial": 7, "rt": 539, "response": "Beta"}, "6": {"stimulus": 16, "trial": 6, "rt": 1010, "response": "Alpha"}, "9": {"stimulus": 12, "trial": 9, "rt": 4292, "response": "Beta"}, "8": {"stimulus": 17, "trial": 8, "rt": 851, "response": "Alpha"}, "78": {"stimulus": 63, "trial": 78, "rt": 1651, "response": "Beta"}, "51": {"stimulus": 38, "trial": 51, "rt": 459, "response": "Beta"}, "39": {"stimulus": 33, "trial": 39, "rt": 738, "response": "Alpha"}, "65": {"stimulus": 50, "trial": 65, "rt": 675, "response": "Beta"}, "76": {"stimulus": 61, "trial": 76, "rt": 858, "response": "Beta"}, "75": {"stimulus": 77, "trial": 75, "rt": 1235, "response": "Beta"}, "38": {"stimulus": 23, "trial": 38, "rt": 628, "response": "Beta"}, "73": {"stimulus": 59, "trial": 73, "rt": 1659, "response": "Beta"}, "72": {"stimulus": 43, "trial": 72, "rt": 1140, "response": "Beta"}, "71": {"stimulus": 36, "trial": 71, "rt": 443, "response": "Beta"}, "70": {"stimulus": 26, "trial": 70, "rt": 787, "response": "Alpha"}, "59": {"stimulus": 56, "trial": 59, "rt": 523, "response": "Beta"}, "79": {"stimulus": 29, "trial": 79, "rt": 755, "response": "Beta"}, "58": {"stimulus": 28, "trial": 58, "rt": 3250, "response": "Beta"}, "11": {"stimulus": 60, "trial": 11, "rt": 723, "response": "Alpha"}, "10": {"stimulus": 15, "trial": 10, "rt": 1042, "response": "Alpha"}, "13": {"stimulus": 19, "trial": 13, "rt": 418, "response": "Beta"}, "12": {"stimulus": 41, "trial": 12, "rt": 740, "response": "Alpha"}, "15": {"stimulus": 2, "trial": 15, "rt": 539, "response": "Beta"}, "14": {"stimulus": 24, "trial": 14, "rt": 570, "response": "Beta"}, "17": {"stimulus": 68, "trial": 17, "rt": 763, "response": "Alpha"}, "16": {"stimulus": 21, "trial": 16, "rt": 450, "response": "Beta"}, "19": {"stimulus": 80, "trial": 19, "rt": 1242, "response": "Beta"}, "18": {"stimulus": 3, "trial": 18, "rt": 635, "response": "Beta"}, "31": {"stimulus": 44, "trial": 31, "rt": 882, "response": "Alpha"}, "30": {"stimulus": 0, "trial": 30, "rt": 1426, "response": "Beta"}, "37": {"stimulus": 39, "trial": 37, "rt": 522, "response": "Beta"}, "36": {"stimulus": 1, "trial": 36, "rt": 377, "response": "Beta"}, "35": {"stimulus": 7, "trial": 35, "rt": 906, "response": "Alpha"}, "34": {"stimulus": 20, "trial": 34, "rt": 842, "response": "Alpha"}, "33": {"stimulus": 76, "trial": 33, "rt": 715, "response": "Beta"}, "55": {"stimulus": 10, "trial": 55, "rt": 1091, "response": "Beta"}, "74": {"stimulus": 73, "trial": 74, "rt": 915, "response": "Beta"}, "32": {"stimulus": 69, "trial": 32, "rt": 667, "response": "Beta"}, "57": {"stimulus": 78, "trial": 57, "rt": 1707, "response": "Beta"}, "50": {"stimulus": 18, "trial": 50, "rt": 403, "response": "Alpha"}}}