{"generation": {"1": {"stimulus": 72, "trial": 1, "rt": 8218}, "0": {"stimulus": 73, "trial": 0, "rt": 25377}, "3": {"stimulus": 64, "trial": 3, "rt": 6203}, "2": {"stimulus": 75, "trial": 2, "rt": 6130}}, "info": {"finish": 1482182497262, "participant": 117, "exposed": true, "lab": false, "start": 1482181455303, "counterbalance": 7, "condition": "Bottom", "browser": {"platform": "Win32", "userAgent": "Mozilla/5.0 (Windows NT 10.0; WOW64) AppleWebKit/537.36 (KHTML, like Gecko) Chrome/55.0.2883.87 Safari/537.36"}}, "experiment": {"Paradigm": "TACL", "Stimuli": "Size-Color Squares", "Experiment": "Generating-Categories"}, "observation": {"11": {"stimulus": 12, "trial": 11, "rt": 1507}, "10": {"stimulus": 14, "trial": 10, "rt": 1043}, "1": {"stimulus": 30, "trial": 1, "rt": 1410}, "0": {"stimulus": 14, "trial": 0, "rt": 2363}, "3": {"stimulus": 32, "trial": 3, "rt": 1352}, "2": {"stimulus": 12, "trial": 2, "rt": 1123}, "5": {"stimulus": 30, "trial": 5, "rt": 10490}, "4": {"stimulus": 32, "trial": 4, "rt": 3061}, "7": {"stimulus": 12, "trial": 7, "rt": 1090}, "6": {"stimulus": 14, "trial": 6, "rt": 1379}, "9": {"stimulus": 30, "trial": 9, "rt": 6336}, "8": {"stimulus": 32, "trial": 8, "rt": 1185}}, "generalization": {"56": {"stimulus": 68, "trial": 56, "rt": 820, "response": "Beta"}, "77": {"stimulus": 17, "trial": 77, "rt": 1978, "response": "Alpha"}, "54": {"stimulus": 49, "trial": 54, "rt": 1051, "response": "Beta"}, "42": {"stimulus": 64, "trial": 42, "rt": 612, "response": "Beta"}, "48": {"stimulus": 62, "trial": 48, "rt": 755, "response": "Beta"}, "43": {"stimulus": 51, "trial": 43, "rt": 710, "response": "Beta"}, "60": {"stimulus": 11, "trial": 60, "rt": 1348, "response": "Alpha"}, "61": {"stimulus": 72, "trial": 61, "rt": 707, "response": "Beta"}, "62": {"stimulus": 31, "trial": 62, "rt": 1006, "response": "Beta"}, "63": {"stimulus": 65, "trial": 63, "rt": 658, "response": "Beta"}, "64": {"stimulus": 8, "trial": 64, "rt": 1060, "response": "Alpha"}, "49": {"stimulus": 30, "trial": 49, "rt": 1214, "response": "Alpha"}, "66": {"stimulus": 41, "trial": 66, "rt": 612, "response": "Beta"}, "67": {"stimulus": 69, "trial": 67, "rt": 523, "response": "Beta"}, "68": {"stimulus": 10, "trial": 68, "rt": 2187, "response": "Beta"}, "69": {"stimulus": 66, "trial": 69, "rt": 548, "response": "Beta"}, "80": {"stimulus": 55, "trial": 80, "rt": 676, "response": "Beta"}, "52": {"stimulus": 22, "trial": 52, "rt": 853, "response": "Alpha"}, "53": {"stimulus": 39, "trial": 53, "rt": 1570, "response": "Beta"}, "24": {"stimulus": 1, "trial": 24, "rt": 5261, "response": "Alpha"}, "25": {"stimulus": 13, "trial": 25, "rt": 1604, "response": "Beta"}, "26": {"stimulus": 78, "trial": 26, "rt": 675, "response": "Beta"}, "27": {"stimulus": 29, "trial": 27, "rt": 1076, "response": "Beta"}, "20": {"stimulus": 80, "trial": 20, "rt": 1012, "response": "Beta"}, "21": {"stimulus": 5, "trial": 21, "rt": 1740, "response": "Beta"}, "22": {"stimulus": 0, "trial": 22, "rt": 1040, "response": "Alpha"}, "23": {"stimulus": 50, "trial": 23, "rt": 2563, "response": "Beta"}, "46": {"stimulus": 76, "trial": 46, "rt": 811, "response": "Beta"}, "47": {"stimulus": 28, "trial": 47, "rt": 1838, "response": "Alpha"}, "44": {"stimulus": 53, "trial": 44, "rt": 676, "response": "Beta"}, "45": {"stimulus": 12, "trial": 45, "rt": 1235, "response": "Alpha"}, "28": {"stimulus": 20, "trial": 28, "rt": 1124, "response": "Beta"}, "29": {"stimulus": 25, "trial": 29, "rt": 988, "response": "Beta"}, "40": {"stimulus": 24, "trial": 40, "rt": 2196, "response": "Beta"}, "41": {"stimulus": 19, "trial": 41, "rt": 3371, "response": "Beta"}, "1": {"stimulus": 4, "trial": 1, "rt": 1282, "response": "Alpha"}, "0": {"stimulus": 33, "trial": 0, "rt": 2759, "response": "Alpha"}, "3": {"stimulus": 48, "trial": 3, "rt": 1266, "response": "Beta"}, "2": {"stimulus": 47, "trial": 2, "rt": 1172, "response": "Beta"}, "5": {"stimulus": 14, "trial": 5, "rt": 1579, "response": "Alpha"}, "4": {"stimulus": 57, "trial": 4, "rt": 728, "response": "Beta"}, "7": {"stimulus": 38, "trial": 7, "rt": 2388, "response": "Beta"}, "6": {"stimulus": 77, "trial": 6, "rt": 3274, "response": "Beta"}, "9": {"stimulus": 7, "trial": 9, "rt": 1604, "response": "Alpha"}, "8": {"stimulus": 67, "trial": 8, "rt": 995, "response": "Beta"}, "78": {"stimulus": 23, "trial": 78, "rt": 2428, "response": "Alpha"}, "51": {"stimulus": 36, "trial": 51, "rt": 1723, "response": "Alpha"}, "39": {"stimulus": 73, "trial": 39, "rt": 3092, "response": "Beta"}, "65": {"stimulus": 58, "trial": 65, "rt": 692, "response": "Beta"}, "76": {"stimulus": 52, "trial": 76, "rt": 660, "response": "Beta"}, "75": {"stimulus": 9, "trial": 75, "rt": 1144, "response": "Alpha"}, "38": {"stimulus": 34, "trial": 38, "rt": 844, "response": "Beta"}, "73": {"stimulus": 2, "trial": 73, "rt": 1588, "response": "Alpha"}, "72": {"stimulus": 16, "trial": 72, "rt": 4003, "response": "Beta"}, "71": {"stimulus": 59, "trial": 71, "rt": 795, "response": "Beta"}, "70": {"stimulus": 15, "trial": 70, "rt": 1499, "response": "Alpha"}, "59": {"stimulus": 74, "trial": 59, "rt": 608, "response": "Beta"}, "79": {"stimulus": 32, "trial": 79, "rt": 3719, "response": "Beta"}, "58": {"stimulus": 26, "trial": 58, "rt": 1263, "response": "Beta"}, "11": {"stimulus": 56, "trial": 11, "rt": 851, "response": "Beta"}, "10": {"stimulus": 46, "trial": 10, "rt": 941, "response": "Beta"}, "13": {"stimulus": 75, "trial": 13, "rt": 731, "response": "Beta"}, "12": {"stimulus": 3, "trial": 12, "rt": 980, "response": "Alpha"}, "15": {"stimulus": 40, "trial": 15, "rt": 3181, "response": "Beta"}, "14": {"stimulus": 37, "trial": 14, "rt": 4106, "response": "Beta"}, "17": {"stimulus": 45, "trial": 17, "rt": 1107, "response": "Beta"}, "16": {"stimulus": 42, "trial": 16, "rt": 8355, "response": "Beta"}, "19": {"stimulus": 43, "trial": 19, "rt": 1187, "response": "Beta"}, "18": {"stimulus": 54, "trial": 18, "rt": 1027, "response": "Beta"}, "31": {"stimulus": 21, "trial": 31, "rt": 804, "response": "Beta"}, "30": {"stimulus": 63, "trial": 30, "rt": 2987, "response": "Beta"}, "37": {"stimulus": 35, "trial": 37, "rt": 1035, "response": "Beta"}, "36": {"stimulus": 60, "trial": 36, "rt": 6275, "response": "Beta"}, "35": {"stimulus": 79, "trial": 35, "rt": 707, "response": "Beta"}, "34": {"stimulus": 18, "trial": 34, "rt": 2948, "response": "Alpha"}, "33": {"stimulus": 6, "trial": 33, "rt": 1572, "response": "Alpha"}, "55": {"stimulus": 61, "trial": 55, "rt": 1315, "response": "Beta"}, "74": {"stimulus": 70, "trial": 74, "rt": 839, "response": "Beta"}, "32": {"stimulus": 71, "trial": 32, "rt": 620, "response": "Beta"}, "57": {"stimulus": 27, "trial": 57, "rt": 1176, "response": "Beta"}, "50": {"stimulus": 44, "trial": 50, "rt": 896, "response": "Alpha"}}}