{"generation": {"1": {"stimulus": 13, "trial": 1, "rt": 5497}, "0": {"stimulus": 3, "trial": 0, "rt": 7936}, "3": {"stimulus": 31, "trial": 3, "rt": 2072}, "2": {"stimulus": 22, "trial": 2, "rt": 2419}}, "info": {"finish": 1482181966168, "participant": 118, "exposed": true, "lab": false, "start": 1482181455479, "counterbalance": 2, "condition": "Bottom", "browser": {"platform": "Win32", "userAgent": "Mozilla/5.0 (Windows NT 6.1; Win64; x64) AppleWebKit/537.36 (KHTML, like Gecko) Chrome/55.0.2883.87 Safari/537.36"}}, "experiment": {"Paradigm": "TACL", "Stimuli": "Size-Color Squares", "Experiment": "Generating-Categories"}, "observation": {"11": {"stimulus": 12, "trial": 11, "rt": 1027}, "10": {"stimulus": 32, "trial": 10, "rt": 722}, "1": {"stimulus": 30, "trial": 1, "rt": 3114}, "0": {"stimulus": 12, "trial": 0, "rt": 2924}, "3": {"stimulus": 32, "trial": 3, "rt": 1123}, "2": {"stimulus": 14, "trial": 2, "rt": 2063}, "5": {"stimulus": 14, "trial": 5, "rt": 1098}, "4": {"stimulus": 32, "trial": 4, "rt": 1107}, "7": {"stimulus": 30, "trial": 7, "rt": 1539}, "6": {"stimulus": 12, "trial": 6, "rt": 3146}, "9": {"stimulus": 14, "trial": 9, "rt": 946}, "8": {"stimulus": 30, "trial": 8, "rt": 1036}}, "generalization": {"56": {"stimulus": 33, "trial": 56, "rt": 531, "response": "Alpha"}, "77": {"stimulus": 13, "trial": 77, "rt": 483, "response": "Beta"}, "54": {"stimulus": 26, "trial": 54, "rt": 580, "response": "Beta"}, "42": {"stimulus": 64, "trial": 42, "rt": 715, "response": "Alpha"}, "48": {"stimulus": 39, "trial": 48, "rt": 418, "response": "Beta"}, "43": {"stimulus": 80, "trial": 43, "rt": 563, "response": "Alpha"}, "60": {"stimulus": 23, "trial": 60, "rt": 515, "response": "Beta"}, "61": {"stimulus": 37, "trial": 61, "rt": 875, "response": "Beta"}, "62": {"stimulus": 77, "trial": 62, "rt": 659, "response": "Alpha"}, "63": {"stimulus": 34, "trial": 63, "rt": 427, "response": "Beta"}, "64": {"stimulus": 0, "trial": 64, "rt": 403, "response": "Beta"}, "49": {"stimulus": 6, "trial": 49, "rt": 604, "response": "Beta"}, "66": {"stimulus": 79, "trial": 66, "rt": 603, "response": "Alpha"}, "67": {"stimulus": 68, "trial": 67, "rt": 1218, "response": "Alpha"}, "68": {"stimulus": 70, "trial": 68, "rt": 530, "response": "Alpha"}, "69": {"stimulus": 21, "trial": 69, "rt": 699, "response": "Beta"}, "80": {"stimulus": 10, "trial": 80, "rt": 531, "response": "Beta"}, "52": {"stimulus": 40, "trial": 52, "rt": 930, "response": "Beta"}, "53": {"stimulus": 9, "trial": 53, "rt": 667, "response": "Beta"}, "24": {"stimulus": 27, "trial": 24, "rt": 555, "response": "Beta"}, "25": {"stimulus": 41, "trial": 25, "rt": 554, "response": "Beta"}, "26": {"stimulus": 55, "trial": 26, "rt": 1092, "response": "Alpha"}, "27": {"stimulus": 17, "trial": 27, "rt": 1562, "response": "Beta"}, "20": {"stimulus": 75, "trial": 20, "rt": 763, "response": "Alpha"}, "21": {"stimulus": 7, "trial": 21, "rt": 931, "response": "Beta"}, "22": {"stimulus": 30, "trial": 22, "rt": 803, "response": "Beta"}, "23": {"stimulus": 44, "trial": 23, "rt": 603, "response": "Beta"}, "46": {"stimulus": 73, "trial": 46, "rt": 515, "response": "Alpha"}, "47": {"stimulus": 42, "trial": 47, "rt": 484, "response": "Alpha"}, "44": {"stimulus": 54, "trial": 44, "rt": 539, "response": "Alpha"}, "45": {"stimulus": 46, "trial": 45, "rt": 523, "response": "Alpha"}, "28": {"stimulus": 69, "trial": 28, "rt": 920, "response": "Alpha"}, "29": {"stimulus": 1, "trial": 29, "rt": 771, "response": "Beta"}, "40": {"stimulus": 31, "trial": 40, "rt": 594, "response": "Beta"}, "41": {"stimulus": 15, "trial": 41, "rt": 1530, "response": "Beta"}, "1": {"stimulus": 43, "trial": 1, "rt": 3747, "response": "Beta"}, "0": {"stimulus": 45, "trial": 0, "rt": 1960, "response": "Alpha"}, "3": {"stimulus": 63, "trial": 3, "rt": 844, "response": "Alpha"}, "2": {"stimulus": 76, "trial": 2, "rt": 1219, "response": "Alpha"}, "5": {"stimulus": 51, "trial": 5, "rt": 1219, "response": "Alpha"}, "4": {"stimulus": 5, "trial": 4, "rt": 747, "response": "Beta"}, "7": {"stimulus": 14, "trial": 7, "rt": 819, "response": "Beta"}, "6": {"stimulus": 52, "trial": 6, "rt": 603, "response": "Beta"}, "9": {"stimulus": 20, "trial": 9, "rt": 651, "response": "Beta"}, "8": {"stimulus": 78, "trial": 8, "rt": 587, "response": "Beta"}, "78": {"stimulus": 25, "trial": 78, "rt": 539, "response": "Beta"}, "51": {"stimulus": 19, "trial": 51, "rt": 364, "response": "Beta"}, "39": {"stimulus": 36, "trial": 39, "rt": 590, "response": "Beta"}, "65": {"stimulus": 62, "trial": 65, "rt": 417, "response": "Beta"}, "76": {"stimulus": 16, "trial": 76, "rt": 491, "response": "Beta"}, "75": {"stimulus": 12, "trial": 75, "rt": 635, "response": "Beta"}, "38": {"stimulus": 49, "trial": 38, "rt": 818, "response": "Beta"}, "73": {"stimulus": 35, "trial": 73, "rt": 483, "response": "Alpha"}, "72": {"stimulus": 57, "trial": 72, "rt": 435, "response": "Beta"}, "71": {"stimulus": 53, "trial": 71, "rt": 540, "response": "Alpha"}, "70": {"stimulus": 18, "trial": 70, "rt": 506, "response": "Beta"}, "59": {"stimulus": 74, "trial": 59, "rt": 699, "response": "Alpha"}, "79": {"stimulus": 65, "trial": 79, "rt": 803, "response": "Alpha"}, "58": {"stimulus": 22, "trial": 58, "rt": 851, "response": "Beta"}, "11": {"stimulus": 56, "trial": 11, "rt": 594, "response": "Alpha"}, "10": {"stimulus": 32, "trial": 10, "rt": 1099, "response": "Beta"}, "13": {"stimulus": 58, "trial": 13, "rt": 826, "response": "Alpha"}, "12": {"stimulus": 29, "trial": 12, "rt": 1402, "response": "Alpha"}, "15": {"stimulus": 38, "trial": 15, "rt": 842, "response": "Beta"}, "14": {"stimulus": 59, "trial": 14, "rt": 731, "response": "Alpha"}, "17": {"stimulus": 4, "trial": 17, "rt": 658, "response": "Beta"}, "16": {"stimulus": 48, "trial": 16, "rt": 1091, "response": "Alpha"}, "19": {"stimulus": 11, "trial": 19, "rt": 633, "response": "Beta"}, "18": {"stimulus": 8, "trial": 18, "rt": 884, "response": "Beta"}, "31": {"stimulus": 61, "trial": 31, "rt": 858, "response": "Alpha"}, "30": {"stimulus": 72, "trial": 30, "rt": 979, "response": "Alpha"}, "37": {"stimulus": 66, "trial": 37, "rt": 786, "response": "Alpha"}, "36": {"stimulus": 71, "trial": 36, "rt": 581, "response": "Beta"}, "35": {"stimulus": 28, "trial": 35, "rt": 505, "response": "Beta"}, "34": {"stimulus": 50, "trial": 34, "rt": 5363, "response": "Alpha"}, "33": {"stimulus": 2, "trial": 33, "rt": 620, "response": "Beta"}, "55": {"stimulus": 47, "trial": 55, "rt": 370, "response": "Beta"}, "74": {"stimulus": 67, "trial": 74, "rt": 826, "response": "Alpha"}, "32": {"stimulus": 60, "trial": 32, "rt": 642, "response": "Alpha"}, "57": {"stimulus": 3, "trial": 57, "rt": 867, "response": "Beta"}, "50": {"stimulus": 24, "trial": 50, "rt": 577, "response": "Beta"}}}