{"generation": {"1": {"stimulus": 9, "trial": 1, "rt": 6668}, "0": {"stimulus": 0, "trial": 0, "rt": 10446}, "3": {"stimulus": 18, "trial": 3, "rt": 4227}, "2": {"stimulus": 72, "trial": 2, "rt": 3688}}, "info": {"finish": 1482182095712, "participant": 119, "exposed": true, "lab": false, "start": 1482181457718, "counterbalance": 5, "condition": "Bottom", "browser": {"platform": "Win32", "userAgent": "Mozilla/5.0 (Windows NT 10.0; Win64; x64) AppleWebKit/537.36 (KHTML, like Gecko) Chrome/55.0.2883.87 Safari/537.36"}}, "experiment": {"Paradigm": "TACL", "Stimuli": "Size-Color Squares", "Experiment": "Generating-Categories"}, "observation": {"11": {"stimulus": 12, "trial": 11, "rt": 901}, "10": {"stimulus": 32, "trial": 10, "rt": 1250}, "1": {"stimulus": 32, "trial": 1, "rt": 1639}, "0": {"stimulus": 12, "trial": 0, "rt": 41165}, "3": {"stimulus": 14, "trial": 3, "rt": 1498}, "2": {"stimulus": 30, "trial": 2, "rt": 1498}, "5": {"stimulus": 32, "trial": 5, "rt": 1235}, "4": {"stimulus": 12, "trial": 4, "rt": 1372}, "7": {"stimulus": 30, "trial": 7, "rt": 1107}, "6": {"stimulus": 14, "trial": 6, "rt": 1249}, "9": {"stimulus": 30, "trial": 9, "rt": 865}, "8": {"stimulus": 14, "trial": 8, "rt": 882}}, "generalization": {"56": {"stimulus": 29, "trial": 56, "rt": 726, "response": "Beta"}, "77": {"stimulus": 18, "trial": 77, "rt": 712, "response": "Beta"}, "54": {"stimulus": 25, "trial": 54, "rt": 522, "response": "Alpha"}, "42": {"stimulus": 13, "trial": 42, "rt": 507, "response": "Alpha"}, "48": {"stimulus": 17, "trial": 48, "rt": 435, "response": "Alpha"}, "43": {"stimulus": 54, "trial": 43, "rt": 650, "response": "Beta"}, "60": {"stimulus": 34, "trial": 60, "rt": 363, "response": "Alpha"}, "61": {"stimulus": 6, "trial": 61, "rt": 618, "response": "Alpha"}, "62": {"stimulus": 26, "trial": 62, "rt": 375, "response": "Alpha"}, "63": {"stimulus": 42, "trial": 63, "rt": 378, "response": "Alpha"}, "64": {"stimulus": 65, "trial": 64, "rt": 678, "response": "Beta"}, "49": {"stimulus": 60, "trial": 49, "rt": 446, "response": "Alpha"}, "66": {"stimulus": 72, "trial": 66, "rt": 724, "response": "Beta"}, "67": {"stimulus": 10, "trial": 67, "rt": 709, "response": "Beta"}, "68": {"stimulus": 58, "trial": 68, "rt": 777, "response": "Alpha"}, "69": {"stimulus": 50, "trial": 69, "rt": 445, "response": "Alpha"}, "80": {"stimulus": 27, "trial": 80, "rt": 466, "response": "Alpha"}, "52": {"stimulus": 80, "trial": 52, "rt": 425, "response": "Alpha"}, "53": {"stimulus": 55, "trial": 53, "rt": 642, "response": "Beta"}, "24": {"stimulus": 53, "trial": 24, "rt": 483, "response": "Alpha"}, "25": {"stimulus": 0, "trial": 25, "rt": 761, "response": "Beta"}, "26": {"stimulus": 22, "trial": 26, "rt": 1298, "response": "Alpha"}, "27": {"stimulus": 46, "trial": 27, "rt": 681, "response": "Beta"}, "20": {"stimulus": 63, "trial": 20, "rt": 715, "response": "Beta"}, "21": {"stimulus": 67, "trial": 21, "rt": 483, "response": "Alpha"}, "22": {"stimulus": 71, "trial": 22, "rt": 384, "response": "Alpha"}, "23": {"stimulus": 78, "trial": 23, "rt": 387, "response": "Alpha"}, "46": {"stimulus": 40, "trial": 46, "rt": 6496, "response": "Alpha"}, "47": {"stimulus": 45, "trial": 47, "rt": 806, "response": "Beta"}, "44": {"stimulus": 5, "trial": 44, "rt": 1033, "response": "Alpha"}, "45": {"stimulus": 1, "trial": 45, "rt": 379, "response": "Alpha"}, "28": {"stimulus": 56, "trial": 28, "rt": 666, "response": "Beta"}, "29": {"stimulus": 9, "trial": 29, "rt": 530, "response": "Beta"}, "40": {"stimulus": 33, "trial": 40, "rt": 380, "response": "Alpha"}, "41": {"stimulus": 36, "trial": 41, "rt": 606, "response": "Beta"}, "1": {"stimulus": 8, "trial": 1, "rt": 648, "response": "Alpha"}, "0": {"stimulus": 52, "trial": 0, "rt": 1575, "response": "Alpha"}, "3": {"stimulus": 23, "trial": 3, "rt": 817, "response": "Alpha"}, "2": {"stimulus": 57, "trial": 2, "rt": 867, "response": "Beta"}, "5": {"stimulus": 43, "trial": 5, "rt": 412, "response": "Alpha"}, "4": {"stimulus": 48, "trial": 4, "rt": 794, "response": "Alpha"}, "7": {"stimulus": 24, "trial": 7, "rt": 475, "response": "Alpha"}, "6": {"stimulus": 47, "trial": 6, "rt": 843, "response": "Beta"}, "9": {"stimulus": 35, "trial": 9, "rt": 497, "response": "Alpha"}, "8": {"stimulus": 44, "trial": 8, "rt": 449, "response": "Alpha"}, "78": {"stimulus": 61, "trial": 78, "rt": 660, "response": "Alpha"}, "51": {"stimulus": 76, "trial": 51, "rt": 673, "response": "Alpha"}, "39": {"stimulus": 31, "trial": 39, "rt": 359, "response": "Alpha"}, "65": {"stimulus": 12, "trial": 65, "rt": 2034, "response": "Alpha"}, "76": {"stimulus": 79, "trial": 76, "rt": 490, "response": "Alpha"}, "75": {"stimulus": 20, "trial": 75, "rt": 501, "response": "Alpha"}, "38": {"stimulus": 74, "trial": 38, "rt": 714, "response": "Beta"}, "73": {"stimulus": 41, "trial": 73, "rt": 369, "response": "Alpha"}, "72": {"stimulus": 39, "trial": 72, "rt": 881, "response": "Beta"}, "71": {"stimulus": 37, "trial": 71, "rt": 779, "response": "Beta"}, "70": {"stimulus": 32, "trial": 70, "rt": 375, "response": "Alpha"}, "59": {"stimulus": 70, "trial": 59, "rt": 476, "response": "Alpha"}, "79": {"stimulus": 11, "trial": 79, "rt": 794, "response": "Beta"}, "58": {"stimulus": 21, "trial": 58, "rt": 797, "response": "Beta"}, "11": {"stimulus": 64, "trial": 11, "rt": 695, "response": "Beta"}, "10": {"stimulus": 28, "trial": 10, "rt": 868, "response": "Beta"}, "13": {"stimulus": 2, "trial": 13, "rt": 819, "response": "Beta"}, "12": {"stimulus": 7, "trial": 12, "rt": 538, "response": "Alpha"}, "15": {"stimulus": 19, "trial": 15, "rt": 811, "response": "Beta"}, "14": {"stimulus": 30, "trial": 14, "rt": 1170, "response": "Beta"}, "17": {"stimulus": 73, "trial": 17, "rt": 651, "response": "Beta"}, "16": {"stimulus": 62, "trial": 16, "rt": 527, "response": "Alpha"}, "19": {"stimulus": 59, "trial": 19, "rt": 1552, "response": "Alpha"}, "18": {"stimulus": 51, "trial": 18, "rt": 1707, "response": "Alpha"}, "31": {"stimulus": 14, "trial": 31, "rt": 785, "response": "Alpha"}, "30": {"stimulus": 68, "trial": 30, "rt": 889, "response": "Alpha"}, "37": {"stimulus": 49, "trial": 37, "rt": 1042, "response": "Alpha"}, "36": {"stimulus": 75, "trial": 36, "rt": 631, "response": "Beta"}, "35": {"stimulus": 38, "trial": 35, "rt": 776, "response": "Beta"}, "34": {"stimulus": 15, "trial": 34, "rt": 604, "response": "Alpha"}, "33": {"stimulus": 77, "trial": 33, "rt": 491, "response": "Alpha"}, "55": {"stimulus": 4, "trial": 55, "rt": 1180, "response": "Beta"}, "74": {"stimulus": 3, "trial": 74, "rt": 1218, "response": "Alpha"}, "32": {"stimulus": 69, "trial": 32, "rt": 545, "response": "Alpha"}, "57": {"stimulus": 16, "trial": 57, "rt": 561, "response": "Alpha"}, "50": {"stimulus": 66, "trial": 50, "rt": 809, "response": "Alpha"}}}