{"generation": {"1": {"stimulus": 64, "trial": 1, "rt": 11457}, "0": {"stimulus": 73, "trial": 0, "rt": 12906}, "3": {"stimulus": 63, "trial": 3, "rt": 6106}, "2": {"stimulus": 72, "trial": 2, "rt": 15724}}, "info": {"finish": 1482181699892, "participant": 120, "exposed": true, "lab": false, "start": 1482181458102, "counterbalance": 0, "condition": "Bottom", "browser": {"platform": "Win32", "userAgent": "Mozilla/5.0 (Windows NT 10.0; WOW64; rv:50.0) Gecko/20100101 Firefox/50.0"}}, "experiment": {"Paradigm": "TACL", "Stimuli": "Size-Color Squares", "Experiment": "Generating-Categories"}, "observation": {"11": {"stimulus": 32, "trial": 11, "rt": 1371}, "10": {"stimulus": 14, "trial": 10, "rt": 2059}, "1": {"stimulus": 32, "trial": 1, "rt": 2704}, "0": {"stimulus": 30, "trial": 0, "rt": 3190}, "3": {"stimulus": 12, "trial": 3, "rt": 2286}, "2": {"stimulus": 14, "trial": 2, "rt": 2961}, "5": {"stimulus": 14, "trial": 5, "rt": 1869}, "4": {"stimulus": 12, "trial": 4, "rt": 2149}, "7": {"stimulus": 32, "trial": 7, "rt": 1669}, "6": {"stimulus": 30, "trial": 6, "rt": 1839}, "9": {"stimulus": 12, "trial": 9, "rt": 1923}, "8": {"stimulus": 30, "trial": 8, "rt": 1608}}, "generalization": {"56": {"stimulus": 36, "trial": 56, "rt": 670, "response": "Alpha"}, "77": {"stimulus": 65, "trial": 77, "rt": 1071, "response": "Beta"}, "54": {"stimulus": 40, "trial": 54, "rt": 608, "response": "Alpha"}, "42": {"stimulus": 30, "trial": 42, "rt": 657, "response": "Alpha"}, "48": {"stimulus": 47, "trial": 48, "rt": 1095, "response": "Alpha"}, "43": {"stimulus": 35, "trial": 43, "rt": 559, "response": "Alpha"}, "60": {"stimulus": 28, "trial": 60, "rt": 645, "response": "Alpha"}, "61": {"stimulus": 64, "trial": 61, "rt": 1316, "response": "Beta"}, "62": {"stimulus": 52, "trial": 62, "rt": 1193, "response": "Alpha"}, "63": {"stimulus": 44, "trial": 63, "rt": 729, "response": "Alpha"}, "64": {"stimulus": 69, "trial": 64, "rt": 2144, "response": "Beta"}, "49": {"stimulus": 74, "trial": 49, "rt": 1046, "response": "Beta"}, "66": {"stimulus": 24, "trial": 66, "rt": 936, "response": "Alpha"}, "67": {"stimulus": 48, "trial": 67, "rt": 906, "response": "Alpha"}, "68": {"stimulus": 8, "trial": 68, "rt": 910, "response": "Alpha"}, "69": {"stimulus": 60, "trial": 69, "rt": 850, "response": "Alpha"}, "80": {"stimulus": 61, "trial": 80, "rt": 1035, "response": "Alpha"}, "52": {"stimulus": 12, "trial": 52, "rt": 1125, "response": "Alpha"}, "53": {"stimulus": 46, "trial": 53, "rt": 1387, "response": "Alpha"}, "24": {"stimulus": 23, "trial": 24, "rt": 791, "response": "Alpha"}, "25": {"stimulus": 7, "trial": 25, "rt": 777, "response": "Alpha"}, "26": {"stimulus": 78, "trial": 26, "rt": 1180, "response": "Beta"}, "27": {"stimulus": 11, "trial": 27, "rt": 1194, "response": "Alpha"}, "20": {"stimulus": 31, "trial": 20, "rt": 850, "response": "Alpha"}, "21": {"stimulus": 62, "trial": 21, "rt": 1693, "response": "Beta"}, "22": {"stimulus": 71, "trial": 22, "rt": 937, "response": "Beta"}, "23": {"stimulus": 39, "trial": 23, "rt": 1742, "response": "Alpha"}, "46": {"stimulus": 75, "trial": 46, "rt": 651, "response": "Beta"}, "47": {"stimulus": 17, "trial": 47, "rt": 998, "response": "Alpha"}, "44": {"stimulus": 33, "trial": 44, "rt": 541, "response": "Alpha"}, "45": {"stimulus": 55, "trial": 45, "rt": 1194, "response": "Beta"}, "28": {"stimulus": 10, "trial": 28, "rt": 717, "response": "Alpha"}, "29": {"stimulus": 57, "trial": 29, "rt": 1716, "response": "Alpha"}, "40": {"stimulus": 38, "trial": 40, "rt": 1342, "response": "Alpha"}, "41": {"stimulus": 6, "trial": 41, "rt": 933, "response": "Alpha"}, "1": {"stimulus": 13, "trial": 1, "rt": 1960, "response": "Alpha"}, "0": {"stimulus": 34, "trial": 0, "rt": 1716, "response": "Alpha"}, "3": {"stimulus": 5, "trial": 3, "rt": 1315, "response": "Alpha"}, "2": {"stimulus": 76, "trial": 2, "rt": 1680, "response": "Beta"}, "5": {"stimulus": 59, "trial": 5, "rt": 2472, "response": "Beta"}, "4": {"stimulus": 42, "trial": 4, "rt": 1778, "response": "Alpha"}, "7": {"stimulus": 15, "trial": 7, "rt": 948, "response": "Alpha"}, "6": {"stimulus": 25, "trial": 6, "rt": 877, "response": "Alpha"}, "9": {"stimulus": 19, "trial": 9, "rt": 1924, "response": "Alpha"}, "8": {"stimulus": 80, "trial": 8, "rt": 1424, "response": "Beta"}, "78": {"stimulus": 43, "trial": 78, "rt": 1266, "response": "Alpha"}, "51": {"stimulus": 72, "trial": 51, "rt": 621, "response": "Beta"}, "39": {"stimulus": 16, "trial": 39, "rt": 1363, "response": "Alpha"}, "65": {"stimulus": 56, "trial": 65, "rt": 1047, "response": "Beta"}, "76": {"stimulus": 49, "trial": 76, "rt": 958, "response": "Alpha"}, "75": {"stimulus": 3, "trial": 75, "rt": 1021, "response": "Alpha"}, "38": {"stimulus": 70, "trial": 38, "rt": 632, "response": "Beta"}, "73": {"stimulus": 45, "trial": 73, "rt": 681, "response": "Beta"}, "72": {"stimulus": 79, "trial": 72, "rt": 656, "response": "Beta"}, "71": {"stimulus": 54, "trial": 71, "rt": 827, "response": "Beta"}, "70": {"stimulus": 77, "trial": 70, "rt": 1341, "response": "Beta"}, "59": {"stimulus": 66, "trial": 59, "rt": 1373, "response": "Beta"}, "79": {"stimulus": 2, "trial": 79, "rt": 925, "response": "Alpha"}, "58": {"stimulus": 0, "trial": 58, "rt": 2569, "response": "Alpha"}, "11": {"stimulus": 18, "trial": 11, "rt": 1314, "response": "Alpha"}, "10": {"stimulus": 58, "trial": 10, "rt": 2118, "response": "Beta"}, "13": {"stimulus": 50, "trial": 13, "rt": 2136, "response": "Alpha"}, "12": {"stimulus": 29, "trial": 12, "rt": 1230, "response": "Alpha"}, "15": {"stimulus": 14, "trial": 15, "rt": 1034, "response": "Alpha"}, "14": {"stimulus": 26, "trial": 14, "rt": 1078, "response": "Alpha"}, "17": {"stimulus": 9, "trial": 17, "rt": 811, "response": "Alpha"}, "16": {"stimulus": 32, "trial": 16, "rt": 843, "response": "Alpha"}, "19": {"stimulus": 27, "trial": 19, "rt": 888, "response": "Alpha"}, "18": {"stimulus": 41, "trial": 18, "rt": 741, "response": "Alpha"}, "31": {"stimulus": 22, "trial": 31, "rt": 961, "response": "Alpha"}, "30": {"stimulus": 53, "trial": 30, "rt": 815, "response": "Alpha"}, "37": {"stimulus": 73, "trial": 37, "rt": 1156, "response": "Beta"}, "36": {"stimulus": 37, "trial": 36, "rt": 846, "response": "Alpha"}, "35": {"stimulus": 20, "trial": 35, "rt": 783, "response": "Alpha"}, "34": {"stimulus": 4, "trial": 34, "rt": 558, "response": "Alpha"}, "33": {"stimulus": 1, "trial": 33, "rt": 1156, "response": "Alpha"}, "55": {"stimulus": 51, "trial": 55, "rt": 888, "response": "Alpha"}, "74": {"stimulus": 68, "trial": 74, "rt": 670, "response": "Beta"}, "32": {"stimulus": 21, "trial": 32, "rt": 620, "response": "Alpha"}, "57": {"stimulus": 63, "trial": 57, "rt": 1153, "response": "Beta"}, "50": {"stimulus": 67, "trial": 50, "rt": 536, "response": "Beta"}}}