{"generation": {"1": {"stimulus": 73, "trial": 1, "rt": 5304}, "0": {"stimulus": 72, "trial": 0, "rt": 6456}, "3": {"stimulus": 64, "trial": 3, "rt": 19331}, "2": {"stimulus": 63, "trial": 2, "rt": 6001}}, "info": {"finish": 1482181719724, "participant": 121, "exposed": true, "lab": false, "start": 1482181456102, "counterbalance": 7, "condition": "Bottom", "browser": {"platform": "Win32", "userAgent": "Mozilla/5.0 (Windows NT 10.0; WOW64) AppleWebKit/537.36 (KHTML, like Gecko) Chrome/55.0.2883.75 Safari/537.36 OPR/42.0.2393.85"}}, "experiment": {"Paradigm": "TACL", "Stimuli": "Size-Color Squares", "Experiment": "Generating-Categories"}, "observation": {"11": {"stimulus": 14, "trial": 11, "rt": 932}, "10": {"stimulus": 32, "trial": 10, "rt": 886}, "1": {"stimulus": 14, "trial": 1, "rt": 1499}, "0": {"stimulus": 30, "trial": 0, "rt": 1586}, "3": {"stimulus": 12, "trial": 3, "rt": 3185}, "2": {"stimulus": 32, "trial": 2, "rt": 1034}, "5": {"stimulus": 14, "trial": 5, "rt": 1695}, "4": {"stimulus": 12, "trial": 4, "rt": 1353}, "7": {"stimulus": 30, "trial": 7, "rt": 1026}, "6": {"stimulus": 32, "trial": 6, "rt": 1687}, "9": {"stimulus": 30, "trial": 9, "rt": 1008}, "8": {"stimulus": 12, "trial": 8, "rt": 1034}}, "generalization": {"56": {"stimulus": 43, "trial": 56, "rt": 500, "response": "Alpha"}, "77": {"stimulus": 55, "trial": 77, "rt": 484, "response": "Beta"}, "54": {"stimulus": 17, "trial": 54, "rt": 785, "response": "Alpha"}, "42": {"stimulus": 67, "trial": 42, "rt": 547, "response": "Beta"}, "48": {"stimulus": 79, "trial": 48, "rt": 783, "response": "Beta"}, "43": {"stimulus": 62, "trial": 43, "rt": 1423, "response": "Beta"}, "60": {"stimulus": 51, "trial": 60, "rt": 663, "response": "Alpha"}, "61": {"stimulus": 29, "trial": 61, "rt": 616, "response": "Alpha"}, "62": {"stimulus": 9, "trial": 62, "rt": 619, "response": "Alpha"}, "63": {"stimulus": 42, "trial": 63, "rt": 3538, "response": "Alpha"}, "64": {"stimulus": 18, "trial": 64, "rt": 736, "response": "Alpha"}, "49": {"stimulus": 36, "trial": 49, "rt": 1701, "response": "Alpha"}, "66": {"stimulus": 4, "trial": 66, "rt": 893, "response": "Alpha"}, "67": {"stimulus": 14, "trial": 67, "rt": 1042, "response": "Alpha"}, "68": {"stimulus": 25, "trial": 68, "rt": 500, "response": "Alpha"}, "69": {"stimulus": 1, "trial": 69, "rt": 486, "response": "Alpha"}, "80": {"stimulus": 10, "trial": 80, "rt": 1317, "response": "Alpha"}, "52": {"stimulus": 54, "trial": 52, "rt": 785, "response": "Beta"}, "53": {"stimulus": 2, "trial": 53, "rt": 727, "response": "Alpha"}, "24": {"stimulus": 21, "trial": 24, "rt": 778, "response": "Alpha"}, "25": {"stimulus": 73, "trial": 25, "rt": 833, "response": "Beta"}, "26": {"stimulus": 13, "trial": 26, "rt": 665, "response": "Alpha"}, "27": {"stimulus": 59, "trial": 27, "rt": 1416, "response": "Beta"}, "20": {"stimulus": 6, "trial": 20, "rt": 1123, "response": "Alpha"}, "21": {"stimulus": 34, "trial": 21, "rt": 748, "response": "Alpha"}, "22": {"stimulus": 49, "trial": 22, "rt": 1007, "response": "Alpha"}, "23": {"stimulus": 64, "trial": 23, "rt": 616, "response": "Beta"}, "46": {"stimulus": 15, "trial": 46, "rt": 567, "response": "Alpha"}, "47": {"stimulus": 22, "trial": 47, "rt": 521, "response": "Alpha"}, "44": {"stimulus": 35, "trial": 44, "rt": 639, "response": "Alpha"}, "45": {"stimulus": 12, "trial": 45, "rt": 602, "response": "Alpha"}, "28": {"stimulus": 33, "trial": 28, "rt": 1070, "response": "Alpha"}, "29": {"stimulus": 39, "trial": 29, "rt": 730, "response": "Alpha"}, "40": {"stimulus": 70, "trial": 40, "rt": 707, "response": "Beta"}, "41": {"stimulus": 69, "trial": 41, "rt": 555, "response": "Beta"}, "1": {"stimulus": 28, "trial": 1, "rt": 1743, "response": "Alpha"}, "0": {"stimulus": 53, "trial": 0, "rt": 4051, "response": "Beta"}, "3": {"stimulus": 38, "trial": 3, "rt": 617, "response": "Alpha"}, "2": {"stimulus": 47, "trial": 2, "rt": 1387, "response": "Alpha"}, "5": {"stimulus": 66, "trial": 5, "rt": 1860, "response": "Beta"}, "4": {"stimulus": 48, "trial": 4, "rt": 867, "response": "Alpha"}, "7": {"stimulus": 78, "trial": 7, "rt": 937, "response": "Beta"}, "6": {"stimulus": 7, "trial": 6, "rt": 900, "response": "Alpha"}, "9": {"stimulus": 57, "trial": 9, "rt": 716, "response": "Beta"}, "8": {"stimulus": 31, "trial": 8, "rt": 1454, "response": "Alpha"}, "78": {"stimulus": 60, "trial": 78, "rt": 548, "response": "Beta"}, "51": {"stimulus": 11, "trial": 51, "rt": 487, "response": "Alpha"}, "39": {"stimulus": 58, "trial": 39, "rt": 1211, "response": "Alpha"}, "65": {"stimulus": 30, "trial": 65, "rt": 683, "response": "Alpha"}, "76": {"stimulus": 56, "trial": 76, "rt": 1084, "response": "Beta"}, "75": {"stimulus": 52, "trial": 75, "rt": 774, "response": "Alpha"}, "38": {"stimulus": 26, "trial": 38, "rt": 656, "response": "Alpha"}, "73": {"stimulus": 0, "trial": 73, "rt": 818, "response": "Alpha"}, "72": {"stimulus": 41, "trial": 72, "rt": 744, "response": "Alpha"}, "71": {"stimulus": 24, "trial": 71, "rt": 470, "response": "Alpha"}, "70": {"stimulus": 8, "trial": 70, "rt": 485, "response": "Alpha"}, "59": {"stimulus": 68, "trial": 59, "rt": 552, "response": "Alpha"}, "79": {"stimulus": 61, "trial": 79, "rt": 518, "response": "Beta"}, "58": {"stimulus": 23, "trial": 58, "rt": 728, "response": "Alpha"}, "11": {"stimulus": 32, "trial": 11, "rt": 814, "response": "Alpha"}, "10": {"stimulus": 40, "trial": 10, "rt": 901, "response": "Alpha"}, "13": {"stimulus": 50, "trial": 13, "rt": 1286, "response": "Alpha"}, "12": {"stimulus": 20, "trial": 12, "rt": 769, "response": "Alpha"}, "15": {"stimulus": 75, "trial": 15, "rt": 579, "response": "Beta"}, "14": {"stimulus": 74, "trial": 14, "rt": 550, "response": "Beta"}, "17": {"stimulus": 3, "trial": 17, "rt": 779, "response": "Alpha"}, "16": {"stimulus": 37, "trial": 16, "rt": 882, "response": "Alpha"}, "19": {"stimulus": 77, "trial": 19, "rt": 731, "response": "Beta"}, "18": {"stimulus": 45, "trial": 18, "rt": 649, "response": "Beta"}, "31": {"stimulus": 65, "trial": 31, "rt": 622, "response": "Beta"}, "30": {"stimulus": 76, "trial": 30, "rt": 546, "response": "Beta"}, "37": {"stimulus": 72, "trial": 37, "rt": 930, "response": "Beta"}, "36": {"stimulus": 16, "trial": 36, "rt": 899, "response": "Alpha"}, "35": {"stimulus": 27, "trial": 35, "rt": 956, "response": "Alpha"}, "34": {"stimulus": 80, "trial": 34, "rt": 600, "response": "Beta"}, "33": {"stimulus": 63, "trial": 33, "rt": 636, "response": "Beta"}, "55": {"stimulus": 44, "trial": 55, "rt": 669, "response": "Alpha"}, "74": {"stimulus": 5, "trial": 74, "rt": 485, "response": "Alpha"}, "32": {"stimulus": 71, "trial": 32, "rt": 953, "response": "Beta"}, "57": {"stimulus": 46, "trial": 57, "rt": 1838, "response": "Alpha"}, "50": {"stimulus": 19, "trial": 50, "rt": 779, "response": "Alpha"}}}