{"generation": {"1": {"stimulus": 77, "trial": 1, "rt": 3321}, "0": {"stimulus": 72, "trial": 0, "rt": 9747}, "3": {"stimulus": 74, "trial": 3, "rt": 4871}, "2": {"stimulus": 75, "trial": 2, "rt": 4591}}, "info": {"finish": 1482181700883, "participant": 122, "exposed": true, "lab": false, "start": 1482181474996, "counterbalance": 1, "condition": "Middle", "browser": {"platform": "Win32", "userAgent": "Mozilla/5.0 (Windows NT 10.0; rv:47.0) Gecko/20100101 Firefox/47.0"}}, "experiment": {"Paradigm": "TACL", "Stimuli": "Size-Color Squares", "Experiment": "Generating-Categories"}, "observation": {"11": {"stimulus": 30, "trial": 11, "rt": 1140}, "10": {"stimulus": 48, "trial": 10, "rt": 1430}, "1": {"stimulus": 30, "trial": 1, "rt": 1966}, "0": {"stimulus": 50, "trial": 0, "rt": 2837}, "3": {"stimulus": 48, "trial": 3, "rt": 1632}, "2": {"stimulus": 32, "trial": 2, "rt": 1533}, "5": {"stimulus": 48, "trial": 5, "rt": 2294}, "4": {"stimulus": 50, "trial": 4, "rt": 1698}, "7": {"stimulus": 32, "trial": 7, "rt": 10433}, "6": {"stimulus": 30, "trial": 6, "rt": 4134}, "9": {"stimulus": 50, "trial": 9, "rt": 1631}, "8": {"stimulus": 32, "trial": 8, "rt": 2424}}, "generalization": {"56": {"stimulus": 42, "trial": 56, "rt": 645, "response": "Alpha"}, "77": {"stimulus": 49, "trial": 77, "rt": 592, "response": "Alpha"}, "54": {"stimulus": 79, "trial": 54, "rt": 1075, "response": "Beta"}, "42": {"stimulus": 44, "trial": 42, "rt": 1019, "response": "Alpha"}, "48": {"stimulus": 36, "trial": 48, "rt": 630, "response": "Alpha"}, "43": {"stimulus": 35, "trial": 43, "rt": 622, "response": "Alpha"}, "60": {"stimulus": 6, "trial": 60, "rt": 739, "response": "Alpha"}, "61": {"stimulus": 68, "trial": 61, "rt": 1245, "response": "Beta"}, "62": {"stimulus": 46, "trial": 62, "rt": 655, "response": "Alpha"}, "63": {"stimulus": 48, "trial": 63, "rt": 596, "response": "Alpha"}, "64": {"stimulus": 28, "trial": 64, "rt": 569, "response": "Alpha"}, "49": {"stimulus": 34, "trial": 49, "rt": 621, "response": "Alpha"}, "66": {"stimulus": 54, "trial": 66, "rt": 1489, "response": "Beta"}, "67": {"stimulus": 73, "trial": 67, "rt": 1035, "response": "Beta"}, "68": {"stimulus": 74, "trial": 68, "rt": 907, "response": "Beta"}, "69": {"stimulus": 27, "trial": 69, "rt": 1052, "response": "Alpha"}, "80": {"stimulus": 11, "trial": 80, "rt": 538, "response": "Alpha"}, "52": {"stimulus": 41, "trial": 52, "rt": 569, "response": "Alpha"}, "53": {"stimulus": 29, "trial": 53, "rt": 577, "response": "Alpha"}, "24": {"stimulus": 13, "trial": 24, "rt": 3616, "response": "Alpha"}, "25": {"stimulus": 14, "trial": 25, "rt": 694, "response": "Alpha"}, "26": {"stimulus": 15, "trial": 26, "rt": 550, "response": "Alpha"}, "27": {"stimulus": 47, "trial": 27, "rt": 1044, "response": "Alpha"}, "20": {"stimulus": 0, "trial": 20, "rt": 622, "response": "Alpha"}, "21": {"stimulus": 56, "trial": 21, "rt": 1370, "response": "Beta"}, "22": {"stimulus": 40, "trial": 22, "rt": 1745, "response": "Alpha"}, "23": {"stimulus": 78, "trial": 23, "rt": 833, "response": "Beta"}, "46": {"stimulus": 33, "trial": 46, "rt": 684, "response": "Alpha"}, "47": {"stimulus": 21, "trial": 47, "rt": 9624, "response": "Alpha"}, "44": {"stimulus": 18, "trial": 44, "rt": 599, "response": "Alpha"}, "45": {"stimulus": 52, "trial": 45, "rt": 677, "response": "Alpha"}, "28": {"stimulus": 37, "trial": 28, "rt": 659, "response": "Alpha"}, "29": {"stimulus": 4, "trial": 29, "rt": 677, "response": "Alpha"}, "40": {"stimulus": 72, "trial": 40, "rt": 965, "response": "Beta"}, "41": {"stimulus": 24, "trial": 41, "rt": 1220, "response": "Alpha"}, "1": {"stimulus": 62, "trial": 1, "rt": 1097, "response": "Alpha"}, "0": {"stimulus": 67, "trial": 0, "rt": 3610, "response": "Alpha"}, "3": {"stimulus": 55, "trial": 3, "rt": 739, "response": "Alpha"}, "2": {"stimulus": 75, "trial": 2, "rt": 1160, "response": "Beta"}, "5": {"stimulus": 43, "trial": 5, "rt": 706, "response": "Alpha"}, "4": {"stimulus": 77, "trial": 4, "rt": 677, "response": "Beta"}, "7": {"stimulus": 70, "trial": 7, "rt": 1353, "response": "Beta"}, "6": {"stimulus": 63, "trial": 6, "rt": 788, "response": "Beta"}, "9": {"stimulus": 10, "trial": 9, "rt": 834, "response": "Alpha"}, "8": {"stimulus": 58, "trial": 8, "rt": 1034, "response": "Alpha"}, "78": {"stimulus": 25, "trial": 78, "rt": 538, "response": "Alpha"}, "51": {"stimulus": 38, "trial": 51, "rt": 645, "response": "Alpha"}, "39": {"stimulus": 2, "trial": 39, "rt": 1028, "response": "Alpha"}, "65": {"stimulus": 32, "trial": 65, "rt": 605, "response": "Alpha"}, "76": {"stimulus": 59, "trial": 76, "rt": 752, "response": "Alpha"}, "75": {"stimulus": 66, "trial": 75, "rt": 1481, "response": "Beta"}, "38": {"stimulus": 61, "trial": 38, "rt": 919, "response": "Beta"}, "73": {"stimulus": 76, "trial": 73, "rt": 941, "response": "Beta"}, "72": {"stimulus": 51, "trial": 72, "rt": 733, "response": "Alpha"}, "71": {"stimulus": 39, "trial": 71, "rt": 1067, "response": "Alpha"}, "70": {"stimulus": 80, "trial": 70, "rt": 919, "response": "Beta"}, "59": {"stimulus": 71, "trial": 59, "rt": 1003, "response": "Beta"}, "79": {"stimulus": 3, "trial": 79, "rt": 553, "response": "Alpha"}, "58": {"stimulus": 12, "trial": 58, "rt": 620, "response": "Alpha"}, "11": {"stimulus": 8, "trial": 11, "rt": 894, "response": "Alpha"}, "10": {"stimulus": 69, "trial": 10, "rt": 1325, "response": "Beta"}, "13": {"stimulus": 5, "trial": 13, "rt": 919, "response": "Alpha"}, "12": {"stimulus": 64, "trial": 12, "rt": 1012, "response": "Beta"}, "15": {"stimulus": 57, "trial": 15, "rt": 1331, "response": "Beta"}, "14": {"stimulus": 31, "trial": 14, "rt": 677, "response": "Alpha"}, "17": {"stimulus": 16, "trial": 17, "rt": 628, "response": "Alpha"}, "16": {"stimulus": 9, "trial": 16, "rt": 796, "response": "Alpha"}, "19": {"stimulus": 17, "trial": 19, "rt": 632, "response": "Alpha"}, "18": {"stimulus": 1, "trial": 18, "rt": 614, "response": "Alpha"}, "31": {"stimulus": 53, "trial": 31, "rt": 604, "response": "Alpha"}, "30": {"stimulus": 50, "trial": 30, "rt": 755, "response": "Alpha"}, "37": {"stimulus": 45, "trial": 37, "rt": 1050, "response": "Alpha"}, "36": {"stimulus": 65, "trial": 36, "rt": 1231, "response": "Beta"}, "35": {"stimulus": 60, "trial": 35, "rt": 1207, "response": "Alpha"}, "34": {"stimulus": 26, "trial": 34, "rt": 714, "response": "Alpha"}, "33": {"stimulus": 20, "trial": 33, "rt": 575, "response": "Alpha"}, "55": {"stimulus": 30, "trial": 55, "rt": 1256, "response": "Alpha"}, "74": {"stimulus": 7, "trial": 74, "rt": 809, "response": "Alpha"}, "32": {"stimulus": 23, "trial": 32, "rt": 718, "response": "Alpha"}, "57": {"stimulus": 19, "trial": 57, "rt": 616, "response": "Alpha"}, "50": {"stimulus": 22, "trial": 50, "rt": 529, "response": "Alpha"}}}