{"generation": {"1": {"stimulus": 80, "trial": 1, "rt": 5586}, "0": {"stimulus": 8, "trial": 0, "rt": 23334}, "3": {"stimulus": 0, "trial": 3, "rt": 19508}, "2": {"stimulus": 72, "trial": 2, "rt": 9952}}, "info": {"finish": 1482181782939, "participant": 125, "exposed": true, "lab": false, "start": 1482181466963, "counterbalance": 1, "condition": "Bottom", "browser": {"platform": "Win32", "userAgent": "Mozilla/5.0 (Windows NT 10.0; Win64; x64) AppleWebKit/537.36 (KHTML, like Gecko) Chrome/55.0.2883.87 Safari/537.36"}}, "experiment": {"Paradigm": "TACL", "Stimuli": "Size-Color Squares", "Experiment": "Generating-Categories"}, "observation": {"11": {"stimulus": 14, "trial": 11, "rt": 1912}, "10": {"stimulus": 32, "trial": 10, "rt": 1278}, "1": {"stimulus": 32, "trial": 1, "rt": 2019}, "0": {"stimulus": 14, "trial": 0, "rt": 4610}, "3": {"stimulus": 30, "trial": 3, "rt": 1555}, "2": {"stimulus": 12, "trial": 2, "rt": 1682}, "5": {"stimulus": 30, "trial": 5, "rt": 1735}, "4": {"stimulus": 32, "trial": 4, "rt": 1657}, "7": {"stimulus": 12, "trial": 7, "rt": 1327}, "6": {"stimulus": 14, "trial": 6, "rt": 1399}, "9": {"stimulus": 30, "trial": 9, "rt": 1249}, "8": {"stimulus": 12, "trial": 8, "rt": 1250}}, "generalization": {"56": {"stimulus": 31, "trial": 56, "rt": 1608, "response": "Alpha"}, "77": {"stimulus": 60, "trial": 77, "rt": 1122, "response": "Beta"}, "54": {"stimulus": 24, "trial": 54, "rt": 1358, "response": "Beta"}, "42": {"stimulus": 11, "trial": 42, "rt": 1477, "response": "Beta"}, "48": {"stimulus": 14, "trial": 48, "rt": 2329, "response": "Alpha"}, "43": {"stimulus": 78, "trial": 43, "rt": 1287, "response": "Beta"}, "60": {"stimulus": 71, "trial": 60, "rt": 1233, "response": "Beta"}, "61": {"stimulus": 29, "trial": 61, "rt": 1130, "response": "Alpha"}, "62": {"stimulus": 21, "trial": 62, "rt": 753, "response": "Alpha"}, "63": {"stimulus": 6, "trial": 63, "rt": 1721, "response": "Beta"}, "64": {"stimulus": 8, "trial": 64, "rt": 724, "response": "Beta"}, "49": {"stimulus": 1, "trial": 49, "rt": 1008, "response": "Beta"}, "66": {"stimulus": 15, "trial": 66, "rt": 1217, "response": "Alpha"}, "67": {"stimulus": 77, "trial": 67, "rt": 1320, "response": "Beta"}, "68": {"stimulus": 73, "trial": 68, "rt": 1195, "response": "Beta"}, "69": {"stimulus": 9, "trial": 69, "rt": 1577, "response": "Alpha"}, "80": {"stimulus": 37, "trial": 80, "rt": 910, "response": "Alpha"}, "52": {"stimulus": 43, "trial": 52, "rt": 1351, "response": "Alpha"}, "53": {"stimulus": 12, "trial": 53, "rt": 1789, "response": "Beta"}, "24": {"stimulus": 42, "trial": 24, "rt": 1209, "response": "Alpha"}, "25": {"stimulus": 26, "trial": 25, "rt": 1265, "response": "Alpha"}, "26": {"stimulus": 45, "trial": 26, "rt": 1076, "response": "Alpha"}, "27": {"stimulus": 44, "trial": 27, "rt": 746, "response": "Alpha"}, "20": {"stimulus": 76, "trial": 20, "rt": 849, "response": "Beta"}, "21": {"stimulus": 65, "trial": 21, "rt": 1765, "response": "Beta"}, "22": {"stimulus": 36, "trial": 22, "rt": 1281, "response": "Alpha"}, "23": {"stimulus": 5, "trial": 23, "rt": 1789, "response": "Beta"}, "46": {"stimulus": 25, "trial": 46, "rt": 3830, "response": "Alpha"}, "47": {"stimulus": 32, "trial": 47, "rt": 839, "response": "Alpha"}, "44": {"stimulus": 39, "trial": 44, "rt": 1310, "response": "Alpha"}, "45": {"stimulus": 79, "trial": 45, "rt": 1021, "response": "Beta"}, "28": {"stimulus": 55, "trial": 28, "rt": 1035, "response": "Alpha"}, "29": {"stimulus": 69, "trial": 29, "rt": 1422, "response": "Beta"}, "40": {"stimulus": 16, "trial": 40, "rt": 1318, "response": "Alpha"}, "41": {"stimulus": 50, "trial": 41, "rt": 769, "response": "Alpha"}, "1": {"stimulus": 66, "trial": 1, "rt": 1444, "response": "Beta"}, "0": {"stimulus": 56, "trial": 0, "rt": 15699, "response": "Alpha"}, "3": {"stimulus": 80, "trial": 3, "rt": 1452, "response": "Beta"}, "2": {"stimulus": 46, "trial": 2, "rt": 1561, "response": "Alpha"}, "5": {"stimulus": 72, "trial": 5, "rt": 1441, "response": "Beta"}, "4": {"stimulus": 3, "trial": 4, "rt": 1258, "response": "Beta"}, "7": {"stimulus": 20, "trial": 7, "rt": 1805, "response": "Alpha"}, "6": {"stimulus": 2, "trial": 6, "rt": 844, "response": "Beta"}, "9": {"stimulus": 64, "trial": 9, "rt": 1343, "response": "Beta"}, "8": {"stimulus": 58, "trial": 8, "rt": 2409, "response": "Alpha"}, "78": {"stimulus": 62, "trial": 78, "rt": 1061, "response": "Beta"}, "51": {"stimulus": 57, "trial": 51, "rt": 1515, "response": "Alpha"}, "39": {"stimulus": 34, "trial": 39, "rt": 1085, "response": "Alpha"}, "65": {"stimulus": 35, "trial": 65, "rt": 1560, "response": "Alpha"}, "76": {"stimulus": 53, "trial": 76, "rt": 1414, "response": "Beta"}, "75": {"stimulus": 47, "trial": 75, "rt": 1851, "response": "Beta"}, "38": {"stimulus": 63, "trial": 38, "rt": 806, "response": "Beta"}, "73": {"stimulus": 23, "trial": 73, "rt": 1021, "response": "Alpha"}, "72": {"stimulus": 28, "trial": 72, "rt": 1319, "response": "Alpha"}, "71": {"stimulus": 17, "trial": 71, "rt": 2488, "response": "Beta"}, "70": {"stimulus": 61, "trial": 70, "rt": 2495, "response": "Beta"}, "59": {"stimulus": 13, "trial": 59, "rt": 1208, "response": "Beta"}, "79": {"stimulus": 40, "trial": 79, "rt": 1231, "response": "Alpha"}, "58": {"stimulus": 75, "trial": 58, "rt": 1280, "response": "Beta"}, "11": {"stimulus": 51, "trial": 11, "rt": 1107, "response": "Alpha"}, "10": {"stimulus": 38, "trial": 10, "rt": 1274, "response": "Alpha"}, "13": {"stimulus": 54, "trial": 13, "rt": 1161, "response": "Alpha"}, "12": {"stimulus": 67, "trial": 12, "rt": 1560, "response": "Beta"}, "15": {"stimulus": 7, "trial": 15, "rt": 874, "response": "Beta"}, "14": {"stimulus": 4, "trial": 14, "rt": 1304, "response": "Beta"}, "17": {"stimulus": 27, "trial": 17, "rt": 1984, "response": "Alpha"}, "16": {"stimulus": 70, "trial": 16, "rt": 1753, "response": "Beta"}, "19": {"stimulus": 74, "trial": 19, "rt": 1342, "response": "Beta"}, "18": {"stimulus": 41, "trial": 18, "rt": 1230, "response": "Alpha"}, "31": {"stimulus": 49, "trial": 31, "rt": 1069, "response": "Alpha"}, "30": {"stimulus": 33, "trial": 30, "rt": 1317, "response": "Alpha"}, "37": {"stimulus": 0, "trial": 37, "rt": 1422, "response": "Beta"}, "36": {"stimulus": 59, "trial": 36, "rt": 1923, "response": "Alpha"}, "35": {"stimulus": 19, "trial": 35, "rt": 684, "response": "Alpha"}, "34": {"stimulus": 10, "trial": 34, "rt": 752, "response": "Alpha"}, "33": {"stimulus": 18, "trial": 33, "rt": 746, "response": "Alpha"}, "55": {"stimulus": 48, "trial": 55, "rt": 967, "response": "Alpha"}, "74": {"stimulus": 30, "trial": 74, "rt": 801, "response": "Alpha"}, "32": {"stimulus": 22, "trial": 32, "rt": 1014, "response": "Alpha"}, "57": {"stimulus": 52, "trial": 57, "rt": 1167, "response": "Alpha"}, "50": {"stimulus": 68, "trial": 50, "rt": 730, "response": "Beta"}}}