{"generation": {"1": {"stimulus": 72, "trial": 1, "rt": 3842}, "0": {"stimulus": 80, "trial": 0, "rt": 7103}, "3": {"stimulus": 79, "trial": 3, "rt": 10619}, "2": {"stimulus": 0, "trial": 2, "rt": 4828}}, "info": {"finish": 1482181744244, "participant": 126, "exposed": true, "lab": false, "start": 1482181467469, "counterbalance": 5, "condition": "Bottom", "browser": {"platform": "Win32", "userAgent": "Mozilla/5.0 (Windows NT 10.0; WOW64) AppleWebKit/537.36 (KHTML, like Gecko) Chrome/55.0.2883.87 Safari/537.36"}}, "experiment": {"Paradigm": "TACL", "Stimuli": "Size-Color Squares", "Experiment": "Generating-Categories"}, "observation": {"11": {"stimulus": 32, "trial": 11, "rt": 1236}, "10": {"stimulus": 14, "trial": 10, "rt": 6441}, "1": {"stimulus": 12, "trial": 1, "rt": 1224}, "0": {"stimulus": 32, "trial": 0, "rt": 3045}, "3": {"stimulus": 14, "trial": 3, "rt": 1028}, "2": {"stimulus": 30, "trial": 2, "rt": 979}, "5": {"stimulus": 32, "trial": 5, "rt": 941}, "4": {"stimulus": 14, "trial": 4, "rt": 923}, "7": {"stimulus": 30, "trial": 7, "rt": 936}, "6": {"stimulus": 12, "trial": 6, "rt": 939}, "9": {"stimulus": 12, "trial": 9, "rt": 1451}, "8": {"stimulus": 30, "trial": 8, "rt": 1700}}, "generalization": {"56": {"stimulus": 31, "trial": 56, "rt": 756, "response": "Alpha"}, "77": {"stimulus": 9, "trial": 77, "rt": 973, "response": "Beta"}, "54": {"stimulus": 51, "trial": 54, "rt": 790, "response": "Beta"}, "42": {"stimulus": 36, "trial": 42, "rt": 786, "response": "Beta"}, "48": {"stimulus": 46, "trial": 48, "rt": 888, "response": "Beta"}, "43": {"stimulus": 80, "trial": 43, "rt": 971, "response": "Beta"}, "60": {"stimulus": 19, "trial": 60, "rt": 1411, "response": "Alpha"}, "61": {"stimulus": 25, "trial": 61, "rt": 1306, "response": "Alpha"}, "62": {"stimulus": 32, "trial": 62, "rt": 1147, "response": "Alpha"}, "63": {"stimulus": 3, "trial": 63, "rt": 554, "response": "Beta"}, "64": {"stimulus": 43, "trial": 64, "rt": 699, "response": "Alpha"}, "49": {"stimulus": 55, "trial": 49, "rt": 575, "response": "Beta"}, "66": {"stimulus": 10, "trial": 66, "rt": 940, "response": "Alpha"}, "67": {"stimulus": 26, "trial": 67, "rt": 980, "response": "Beta"}, "68": {"stimulus": 1, "trial": 68, "rt": 941, "response": "Alpha"}, "69": {"stimulus": 39, "trial": 69, "rt": 732, "response": "Alpha"}, "80": {"stimulus": 73, "trial": 80, "rt": 658, "response": "Beta"}, "52": {"stimulus": 63, "trial": 52, "rt": 724, "response": "Beta"}, "53": {"stimulus": 77, "trial": 53, "rt": 563, "response": "Beta"}, "24": {"stimulus": 42, "trial": 24, "rt": 668, "response": "Alpha"}, "25": {"stimulus": 0, "trial": 25, "rt": 1235, "response": "Beta"}, "26": {"stimulus": 76, "trial": 26, "rt": 1203, "response": "Beta"}, "27": {"stimulus": 49, "trial": 27, "rt": 676, "response": "Alpha"}, "20": {"stimulus": 44, "trial": 20, "rt": 980, "response": "Beta"}, "21": {"stimulus": 75, "trial": 21, "rt": 1315, "response": "Beta"}, "22": {"stimulus": 6, "trial": 22, "rt": 1416, "response": "Alpha"}, "23": {"stimulus": 59, "trial": 23, "rt": 507, "response": "Alpha"}, "46": {"stimulus": 61, "trial": 46, "rt": 843, "response": "Beta"}, "47": {"stimulus": 57, "trial": 47, "rt": 1291, "response": "Beta"}, "44": {"stimulus": 52, "trial": 44, "rt": 635, "response": "Beta"}, "45": {"stimulus": 11, "trial": 45, "rt": 1183, "response": "Alpha"}, "28": {"stimulus": 62, "trial": 28, "rt": 763, "response": "Beta"}, "29": {"stimulus": 38, "trial": 29, "rt": 1036, "response": "Alpha"}, "40": {"stimulus": 29, "trial": 40, "rt": 690, "response": "Alpha"}, "41": {"stimulus": 13, "trial": 41, "rt": 1222, "response": "Alpha"}, "1": {"stimulus": 72, "trial": 1, "rt": 1083, "response": "Beta"}, "0": {"stimulus": 58, "trial": 0, "rt": 2815, "response": "Alpha"}, "3": {"stimulus": 22, "trial": 3, "rt": 788, "response": "Alpha"}, "2": {"stimulus": 54, "trial": 2, "rt": 1044, "response": "Beta"}, "5": {"stimulus": 4, "trial": 5, "rt": 860, "response": "Alpha"}, "4": {"stimulus": 65, "trial": 4, "rt": 980, "response": "Alpha"}, "7": {"stimulus": 78, "trial": 7, "rt": 907, "response": "Beta"}, "6": {"stimulus": 67, "trial": 6, "rt": 1341, "response": "Beta"}, "9": {"stimulus": 35, "trial": 9, "rt": 1114, "response": "Beta"}, "8": {"stimulus": 47, "trial": 8, "rt": 1108, "response": "Alpha"}, "78": {"stimulus": 37, "trial": 78, "rt": 955, "response": "Alpha"}, "51": {"stimulus": 28, "trial": 51, "rt": 762, "response": "Alpha"}, "39": {"stimulus": 33, "trial": 39, "rt": 844, "response": "Alpha"}, "65": {"stimulus": 53, "trial": 65, "rt": 834, "response": "Beta"}, "76": {"stimulus": 7, "trial": 76, "rt": 497, "response": "Beta"}, "75": {"stimulus": 17, "trial": 75, "rt": 989, "response": "Beta"}, "38": {"stimulus": 18, "trial": 38, "rt": 954, "response": "Beta"}, "73": {"stimulus": 12, "trial": 73, "rt": 691, "response": "Alpha"}, "72": {"stimulus": 34, "trial": 72, "rt": 949, "response": "Alpha"}, "71": {"stimulus": 56, "trial": 71, "rt": 548, "response": "Beta"}, "70": {"stimulus": 45, "trial": 70, "rt": 881, "response": "Beta"}, "59": {"stimulus": 79, "trial": 59, "rt": 1227, "response": "Beta"}, "79": {"stimulus": 74, "trial": 79, "rt": 1027, "response": "Beta"}, "58": {"stimulus": 8, "trial": 58, "rt": 1107, "response": "Beta"}, "11": {"stimulus": 5, "trial": 11, "rt": 606, "response": "Alpha"}, "10": {"stimulus": 30, "trial": 10, "rt": 877, "response": "Alpha"}, "13": {"stimulus": 68, "trial": 13, "rt": 939, "response": "Beta"}, "12": {"stimulus": 60, "trial": 12, "rt": 1245, "response": "Alpha"}, "15": {"stimulus": 70, "trial": 15, "rt": 867, "response": "Beta"}, "14": {"stimulus": 20, "trial": 14, "rt": 956, "response": "Alpha"}, "17": {"stimulus": 64, "trial": 17, "rt": 807, "response": "Beta"}, "16": {"stimulus": 23, "trial": 16, "rt": 779, "response": "Alpha"}, "19": {"stimulus": 66, "trial": 19, "rt": 1315, "response": "Beta"}, "18": {"stimulus": 41, "trial": 18, "rt": 735, "response": "Alpha"}, "31": {"stimulus": 16, "trial": 31, "rt": 2138, "response": "Beta"}, "30": {"stimulus": 27, "trial": 30, "rt": 1012, "response": "Beta"}, "37": {"stimulus": 21, "trial": 37, "rt": 748, "response": "Alpha"}, "36": {"stimulus": 48, "trial": 36, "rt": 1019, "response": "Beta"}, "35": {"stimulus": 69, "trial": 35, "rt": 579, "response": "Beta"}, "34": {"stimulus": 71, "trial": 34, "rt": 802, "response": "Beta"}, "33": {"stimulus": 2, "trial": 33, "rt": 630, "response": "Alpha"}, "55": {"stimulus": 15, "trial": 55, "rt": 803, "response": "Alpha"}, "74": {"stimulus": 14, "trial": 74, "rt": 563, "response": "Alpha"}, "32": {"stimulus": 24, "trial": 32, "rt": 972, "response": "Alpha"}, "57": {"stimulus": 50, "trial": 57, "rt": 747, "response": "Alpha"}, "50": {"stimulus": 40, "trial": 50, "rt": 1044, "response": "Alpha"}}}