{"generation": {"1": {"stimulus": 73, "trial": 1, "rt": 14004}, "0": {"stimulus": 72, "trial": 0, "rt": 25293}, "3": {"stimulus": 75, "trial": 3, "rt": 13877}, "2": {"stimulus": 74, "trial": 2, "rt": 7678}}, "info": {"participant": 128, "exposed": true, "lab": false, "start": 1482181464889, "counterbalance": 0, "condition": "Bottom", "browser": {"platform": "Win32", "userAgent": "Mozilla/5.0 (Windows NT 10.0; WOW64; rv:50.0) Gecko/20100101 Firefox/50.0"}}, "experiment": {"Paradigm": "TACL", "Stimuli": "Size-Color Squares", "Experiment": "Generating-Categories"}, "observation": {"11": {"stimulus": 14, "trial": 11, "rt": 1212}, "10": {"stimulus": 32, "trial": 10, "rt": 1178}, "1": {"stimulus": 32, "trial": 1, "rt": 1373}, "0": {"stimulus": 12, "trial": 0, "rt": 2340}, "3": {"stimulus": 14, "trial": 3, "rt": 1212}, "2": {"stimulus": 30, "trial": 2, "rt": 1263}, "5": {"stimulus": 32, "trial": 5, "rt": 2315}, "4": {"stimulus": 14, "trial": 4, "rt": 1787}, "7": {"stimulus": 12, "trial": 7, "rt": 1286}, "6": {"stimulus": 30, "trial": 6, "rt": 1751}, "9": {"stimulus": 30, "trial": 9, "rt": 1183}, "8": {"stimulus": 12, "trial": 8, "rt": 1132}}, "generalization": {"56": {"stimulus": 77, "trial": 56, "rt": 933, "response": "Beta"}, "77": {"stimulus": 78, "trial": 77, "rt": 1388, "response": "Beta"}, "54": {"stimulus": 55, "trial": 54, "rt": 1304, "response": "Beta"}, "42": {"stimulus": 3, "trial": 42, "rt": 949, "response": "Alpha"}, "48": {"stimulus": 21, "trial": 48, "rt": 1388, "response": "Alpha"}, "43": {"stimulus": 73, "trial": 43, "rt": 4322, "response": "Beta"}, "60": {"stimulus": 66, "trial": 60, "rt": 2957, "response": "Beta"}, "61": {"stimulus": 16, "trial": 61, "rt": 2530, "response": "Alpha"}, "62": {"stimulus": 5, "trial": 62, "rt": 796, "response": "Alpha"}, "63": {"stimulus": 53, "trial": 63, "rt": 1484, "response": "Beta"}, "64": {"stimulus": 23, "trial": 64, "rt": 1647, "response": "Alpha"}, "49": {"stimulus": 59, "trial": 49, "rt": 1239, "response": "Beta"}, "66": {"stimulus": 37, "trial": 66, "rt": 1486, "response": "Beta"}, "67": {"stimulus": 48, "trial": 67, "rt": 1085, "response": "Beta"}, "68": {"stimulus": 49, "trial": 68, "rt": 1182, "response": "Beta"}, "69": {"stimulus": 45, "trial": 69, "rt": 971, "response": "Beta"}, "80": {"stimulus": 11, "trial": 80, "rt": 2214, "response": "Alpha"}, "52": {"stimulus": 61, "trial": 52, "rt": 1211, "response": "Beta"}, "53": {"stimulus": 39, "trial": 53, "rt": 1827, "response": "Beta"}, "24": {"stimulus": 8, "trial": 24, "rt": 1210, "response": "Alpha"}, "25": {"stimulus": 69, "trial": 25, "rt": 3237, "response": "Beta"}, "26": {"stimulus": 28, "trial": 26, "rt": 4620, "response": "Alpha"}, "27": {"stimulus": 56, "trial": 27, "rt": 2057, "response": "Beta"}, "20": {"stimulus": 42, "trial": 20, "rt": 1475, "response": "Alpha"}, "21": {"stimulus": 19, "trial": 21, "rt": 990, "response": "Alpha"}, "22": {"stimulus": 75, "trial": 22, "rt": 1625, "response": "Beta"}, "23": {"stimulus": 10, "trial": 23, "rt": 1471, "response": "Alpha"}, "46": {"stimulus": 0, "trial": 46, "rt": 872, "response": "Alpha"}, "47": {"stimulus": 58, "trial": 47, "rt": 2445, "response": "Beta"}, "44": {"stimulus": 80, "trial": 44, "rt": 1200, "response": "Beta"}, "45": {"stimulus": 6, "trial": 45, "rt": 1406, "response": "Alpha"}, "28": {"stimulus": 65, "trial": 28, "rt": 4858, "response": "Beta"}, "29": {"stimulus": 40, "trial": 29, "rt": 1010, "response": "Alpha"}, "40": {"stimulus": 4, "trial": 40, "rt": 873, "response": "Alpha"}, "41": {"stimulus": 38, "trial": 41, "rt": 4086, "response": "Alpha"}, "1": {"stimulus": 15, "trial": 1, "rt": 996, "response": "Alpha"}, "0": {"stimulus": 31, "trial": 0, "rt": 2629, "response": "Alpha"}, "3": {"stimulus": 64, "trial": 3, "rt": 1853, "response": "Beta"}, "2": {"stimulus": 22, "trial": 2, "rt": 986, "response": "Alpha"}, "5": {"stimulus": 12, "trial": 5, "rt": 1057, "response": "Alpha"}, "4": {"stimulus": 18, "trial": 4, "rt": 1174, "response": "Alpha"}, "7": {"stimulus": 25, "trial": 7, "rt": 967, "response": "Alpha"}, "6": {"stimulus": 52, "trial": 6, "rt": 6109, "response": "Beta"}, "9": {"stimulus": 44, "trial": 9, "rt": 1666, "response": "Alpha"}, "8": {"stimulus": 60, "trial": 8, "rt": 2617, "response": "Beta"}, "78": {"stimulus": 72, "trial": 78, "rt": 1015, "response": "Beta"}, "51": {"stimulus": 29, "trial": 51, "rt": 1601, "response": "Alpha"}, "39": {"stimulus": 30, "trial": 39, "rt": 5154, "response": "Alpha"}, "65": {"stimulus": 71, "trial": 65, "rt": 28648, "response": "Beta"}, "76": {"stimulus": 17, "trial": 76, "rt": 1102, "response": "Alpha"}, "75": {"stimulus": 20, "trial": 75, "rt": 1205, "response": "Alpha"}, "38": {"stimulus": 67, "trial": 38, "rt": 1646, "response": "Beta"}, "73": {"stimulus": 36, "trial": 73, "rt": 950, "response": "Alpha"}, "72": {"stimulus": 26, "trial": 72, "rt": 5662, "response": "Alpha"}, "71": {"stimulus": 68, "trial": 71, "rt": 947, "response": "Beta"}, "70": {"stimulus": 76, "trial": 70, "rt": 1085, "response": "Beta"}, "59": {"stimulus": 24, "trial": 59, "rt": 886, "response": "Alpha"}, "79": {"stimulus": 74, "trial": 79, "rt": 963, "response": "Beta"}, "58": {"stimulus": 9, "trial": 58, "rt": 833, "response": "Alpha"}, "11": {"stimulus": 57, "trial": 11, "rt": 1057, "response": "Beta"}, "10": {"stimulus": 47, "trial": 10, "rt": 1622, "response": "Beta"}, "13": {"stimulus": 63, "trial": 13, "rt": 1417, "response": "Beta"}, "12": {"stimulus": 50, "trial": 12, "rt": 1032, "response": "Beta"}, "15": {"stimulus": 2, "trial": 15, "rt": 951, "response": "Alpha"}, "14": {"stimulus": 32, "trial": 14, "rt": 1083, "response": "Alpha"}, "17": {"stimulus": 46, "trial": 17, "rt": 1518, "response": "Beta"}, "16": {"stimulus": 79, "trial": 16, "rt": 1765, "response": "Beta"}, "19": {"stimulus": 7, "trial": 19, "rt": 1076, "response": "Alpha"}, "18": {"stimulus": 27, "trial": 18, "rt": 1200, "response": "Alpha"}, "31": {"stimulus": 1, "trial": 31, "rt": 923, "response": "Alpha"}, "30": {"stimulus": 14, "trial": 30, "rt": 909, "response": "Alpha"}, "37": {"stimulus": 34, "trial": 37, "rt": 1044, "response": "Alpha"}, "36": {"stimulus": 33, "trial": 36, "rt": 10770, "response": "Alpha"}, "35": {"stimulus": 13, "trial": 35, "rt": 1677, "response": "Alpha"}, "34": {"stimulus": 62, "trial": 34, "rt": 2610, "response": "Beta"}, "33": {"stimulus": 35, "trial": 33, "rt": 846, "response": "Alpha"}, "55": {"stimulus": 51, "trial": 55, "rt": 2124, "response": "Beta"}, "74": {"stimulus": 54, "trial": 74, "rt": 3690, "response": "Beta"}, "32": {"stimulus": 41, "trial": 32, "rt": 1289, "response": "Alpha"}, "57": {"stimulus": 43, "trial": 57, "rt": 1333, "response": "Alpha"}, "50": {"stimulus": 70, "trial": 50, "rt": 893, "response": "Beta"}}}93, "response": "Beta"}}}