{"generation": {"1": {"stimulus": 70, "trial": 1, "rt": 5100}, "0": {"stimulus": 1, "trial": 0, "rt": 11003}, "3": {"stimulus": 0, "trial": 3, "rt": 4964}, "2": {"stimulus": 72, "trial": 2, "rt": 5730}}, "info": {"finish": 1482174724267, "participant": 13, "exposed": true, "lab": false, "start": 1482174403427, "counterbalance": 6, "condition": "Middle", "browser": {"platform": "Win32", "userAgent": "Mozilla/5.0 (Windows NT 10.0; WOW64) AppleWebKit/537.36 (KHTML, like Gecko) Chrome/55.0.2883.87 Safari/537.36"}}, "experiment": {"Paradigm": "TACL", "Stimuli": "Size-Color Squares", "Experiment": "Generating-Categories"}, "observation": {"11": {"stimulus": 48, "trial": 11, "rt": 939}, "10": {"stimulus": 30, "trial": 10, "rt": 1028}, "1": {"stimulus": 50, "trial": 1, "rt": 1899}, "0": {"stimulus": 32, "trial": 0, "rt": 2895}, "3": {"stimulus": 30, "trial": 3, "rt": 3036}, "2": {"stimulus": 48, "trial": 2, "rt": 1787}, "5": {"stimulus": 32, "trial": 5, "rt": 1587}, "4": {"stimulus": 48, "trial": 4, "rt": 1556}, "7": {"stimulus": 50, "trial": 7, "rt": 1044}, "6": {"stimulus": 30, "trial": 6, "rt": 2155}, "9": {"stimulus": 50, "trial": 9, "rt": 1002}, "8": {"stimulus": 32, "trial": 8, "rt": 1114}}, "generalization": {"56": {"stimulus": 27, "trial": 56, "rt": 851, "response": "Beta"}, "77": {"stimulus": 76, "trial": 77, "rt": 396, "response": "Beta"}, "54": {"stimulus": 39, "trial": 54, "rt": 835, "response": "Alpha"}, "42": {"stimulus": 21, "trial": 42, "rt": 1067, "response": "Beta"}, "48": {"stimulus": 18, "trial": 48, "rt": 642, "response": "Beta"}, "43": {"stimulus": 61, "trial": 43, "rt": 491, "response": "Alpha"}, "60": {"stimulus": 80, "trial": 60, "rt": 683, "response": "Beta"}, "61": {"stimulus": 37, "trial": 61, "rt": 594, "response": "Beta"}, "62": {"stimulus": 20, "trial": 62, "rt": 1242, "response": "Alpha"}, "63": {"stimulus": 53, "trial": 63, "rt": 988, "response": "Beta"}, "64": {"stimulus": 1, "trial": 64, "rt": 907, "response": "Beta"}, "49": {"stimulus": 64, "trial": 49, "rt": 803, "response": "Beta"}, "66": {"stimulus": 35, "trial": 66, "rt": 1003, "response": "Beta"}, "67": {"stimulus": 55, "trial": 67, "rt": 723, "response": "Beta"}, "68": {"stimulus": 7, "trial": 68, "rt": 1069, "response": "Alpha"}, "69": {"stimulus": 11, "trial": 69, "rt": 890, "response": "Beta"}, "80": {"stimulus": 29, "trial": 80, "rt": 299, "response": "Beta"}, "52": {"stimulus": 13, "trial": 52, "rt": 843, "response": "Alpha"}, "53": {"stimulus": 57, "trial": 53, "rt": 514, "response": "Alpha"}, "24": {"stimulus": 70, "trial": 24, "rt": 930, "response": "Beta"}, "25": {"stimulus": 4, "trial": 25, "rt": 1043, "response": "Alpha"}, "26": {"stimulus": 67, "trial": 26, "rt": 908, "response": "Alpha"}, "27": {"stimulus": 73, "trial": 27, "rt": 1834, "response": "Beta"}, "20": {"stimulus": 19, "trial": 20, "rt": 915, "response": "Beta"}, "21": {"stimulus": 32, "trial": 21, "rt": 1283, "response": "Alpha"}, "22": {"stimulus": 79, "trial": 22, "rt": 900, "response": "Alpha"}, "23": {"stimulus": 52, "trial": 23, "rt": 1930, "response": "Beta"}, "46": {"stimulus": 66, "trial": 46, "rt": 339, "response": "Alpha"}, "47": {"stimulus": 63, "trial": 47, "rt": 844, "response": "Beta"}, "44": {"stimulus": 68, "trial": 44, "rt": 459, "response": "Beta"}, "45": {"stimulus": 33, "trial": 45, "rt": 371, "response": "Alpha"}, "28": {"stimulus": 24, "trial": 28, "rt": 2533, "response": "Alpha"}, "29": {"stimulus": 78, "trial": 29, "rt": 2468, "response": "Alpha"}, "40": {"stimulus": 30, "trial": 40, "rt": 396, "response": "Alpha"}, "41": {"stimulus": 0, "trial": 41, "rt": 610, "response": "Beta"}, "1": {"stimulus": 60, "trial": 1, "rt": 1090, "response": "Alpha"}, "0": {"stimulus": 23, "trial": 0, "rt": 2443, "response": "Alpha"}, "3": {"stimulus": 9, "trial": 3, "rt": 1050, "response": "Beta"}, "2": {"stimulus": 16, "trial": 2, "rt": 1299, "response": "Beta"}, "5": {"stimulus": 59, "trial": 5, "rt": 795, "response": "Alpha"}, "4": {"stimulus": 17, "trial": 4, "rt": 1498, "response": "Beta"}, "7": {"stimulus": 58, "trial": 7, "rt": 692, "response": "Alpha"}, "6": {"stimulus": 2, "trial": 6, "rt": 1034, "response": "Alpha"}, "9": {"stimulus": 41, "trial": 9, "rt": 1395, "response": "Alpha"}, "8": {"stimulus": 74, "trial": 8, "rt": 1035, "response": "Alpha"}, "78": {"stimulus": 44, "trial": 78, "rt": 307, "response": "Alpha"}, "51": {"stimulus": 10, "trial": 51, "rt": 1003, "response": "Beta"}, "39": {"stimulus": 56, "trial": 39, "rt": 1155, "response": "Beta"}, "65": {"stimulus": 75, "trial": 65, "rt": 2130, "response": "Alpha"}, "76": {"stimulus": 43, "trial": 76, "rt": 898, "response": "Beta"}, "75": {"stimulus": 71, "trial": 75, "rt": 777, "response": "Beta"}, "38": {"stimulus": 45, "trial": 38, "rt": 395, "response": "Beta"}, "73": {"stimulus": 46, "trial": 73, "rt": 291, "response": "Beta"}, "72": {"stimulus": 47, "trial": 72, "rt": 450, "response": "Alpha"}, "71": {"stimulus": 62, "trial": 71, "rt": 377, "response": "Alpha"}, "70": {"stimulus": 5, "trial": 70, "rt": 707, "response": "Beta"}, "59": {"stimulus": 8, "trial": 59, "rt": 995, "response": "Beta"}, "79": {"stimulus": 15, "trial": 79, "rt": 282, "response": "Beta"}, "58": {"stimulus": 65, "trial": 58, "rt": 1219, "response": "Beta"}, "11": {"stimulus": 14, "trial": 11, "rt": 867, "response": "Alpha"}, "10": {"stimulus": 69, "trial": 10, "rt": 979, "response": "Beta"}, "13": {"stimulus": 12, "trial": 13, "rt": 340, "response": "Beta"}, "12": {"stimulus": 38, "trial": 12, "rt": 1051, "response": "Beta"}, "15": {"stimulus": 34, "trial": 15, "rt": 666, "response": "Alpha"}, "14": {"stimulus": 72, "trial": 14, "rt": 338, "response": "Alpha"}, "17": {"stimulus": 36, "trial": 17, "rt": 923, "response": "Beta"}, "16": {"stimulus": 50, "trial": 16, "rt": 684, "response": "Alpha"}, "19": {"stimulus": 25, "trial": 19, "rt": 564, "response": "Beta"}, "18": {"stimulus": 26, "trial": 18, "rt": 1065, "response": "Beta"}, "31": {"stimulus": 40, "trial": 31, "rt": 907, "response": "Beta"}, "30": {"stimulus": 28, "trial": 30, "rt": 1010, "response": "Beta"}, "37": {"stimulus": 49, "trial": 37, "rt": 308, "response": "Alpha"}, "36": {"stimulus": 22, "trial": 36, "rt": 434, "response": "Alpha"}, "35": {"stimulus": 42, "trial": 35, "rt": 579, "response": "Beta"}, "34": {"stimulus": 54, "trial": 34, "rt": 1139, "response": "Beta"}, "33": {"stimulus": 31, "trial": 33, "rt": 811, "response": "Alpha"}, "55": {"stimulus": 3, "trial": 55, "rt": 766, "response": "Alpha"}, "74": {"stimulus": 51, "trial": 74, "rt": 754, "response": "Alpha"}, "32": {"stimulus": 6, "trial": 32, "rt": 1722, "response": "Alpha"}, "57": {"stimulus": 77, "trial": 57, "rt": 963, "response": "Alpha"}, "50": {"stimulus": 48, "trial": 50, "rt": 914, "response": "Alpha"}}}