{"generation": {"1": {"stimulus": 11, "trial": 1, "rt": 10424}, "0": {"stimulus": 47, "trial": 0, "rt": 5481}, "3": {"stimulus": 15, "trial": 3, "rt": 4127}, "2": {"stimulus": 64, "trial": 2, "rt": 14568}}, "info": {"finish": 1482181704310, "participant": 131, "exposed": true, "lab": false, "start": 1482181474589, "counterbalance": 7, "condition": "Bottom", "browser": {"platform": "Win32", "userAgent": "Mozilla/5.0 (Windows NT 6.3; WOW64) AppleWebKit/537.36 (KHTML, like Gecko) Chrome/55.0.2883.87 Safari/537.36"}}, "experiment": {"Paradigm": "TACL", "Stimuli": "Size-Color Squares", "Experiment": "Generating-Categories"}, "observation": {"11": {"stimulus": 12, "trial": 11, "rt": 9074}, "10": {"stimulus": 14, "trial": 10, "rt": 1582}, "1": {"stimulus": 14, "trial": 1, "rt": 1059}, "0": {"stimulus": 12, "trial": 0, "rt": 1728}, "3": {"stimulus": 30, "trial": 3, "rt": 2750}, "2": {"stimulus": 32, "trial": 2, "rt": 1936}, "5": {"stimulus": 14, "trial": 5, "rt": 47147}, "4": {"stimulus": 30, "trial": 4, "rt": 633}, "7": {"stimulus": 32, "trial": 7, "rt": 3606}, "6": {"stimulus": 12, "trial": 6, "rt": 2315}, "9": {"stimulus": 30, "trial": 9, "rt": 4519}, "8": {"stimulus": 32, "trial": 8, "rt": 1165}}, "generalization": {"56": {"stimulus": 10, "trial": 56, "rt": 190, "response": "Beta"}, "77": {"stimulus": 40, "trial": 77, "rt": 331, "response": "Alpha"}, "54": {"stimulus": 50, "trial": 54, "rt": 398, "response": "Alpha"}, "42": {"stimulus": 2, "trial": 42, "rt": 82, "response": "Beta"}, "48": {"stimulus": 11, "trial": 48, "rt": 185, "response": "Alpha"}, "43": {"stimulus": 39, "trial": 43, "rt": 7516, "response": "Beta"}, "60": {"stimulus": 13, "trial": 60, "rt": 111, "response": "Alpha"}, "61": {"stimulus": 31, "trial": 61, "rt": 149, "response": "Beta"}, "62": {"stimulus": 22, "trial": 62, "rt": 221, "response": "Alpha"}, "63": {"stimulus": 3, "trial": 63, "rt": 233, "response": "Beta"}, "64": {"stimulus": 23, "trial": 64, "rt": 213, "response": "Alpha"}, "49": {"stimulus": 52, "trial": 49, "rt": 203, "response": "Beta"}, "66": {"stimulus": 58, "trial": 66, "rt": 116, "response": "Alpha"}, "67": {"stimulus": 19, "trial": 67, "rt": 101, "response": "Beta"}, "68": {"stimulus": 27, "trial": 68, "rt": 232, "response": "Alpha"}, "69": {"stimulus": 15, "trial": 69, "rt": 236, "response": "Beta"}, "80": {"stimulus": 18, "trial": 80, "rt": 1180, "response": "Alpha"}, "52": {"stimulus": 47, "trial": 52, "rt": 283, "response": "Beta"}, "53": {"stimulus": 29, "trial": 53, "rt": 509, "response": "Beta"}, "24": {"stimulus": 9, "trial": 24, "rt": 276, "response": "Alpha"}, "25": {"stimulus": 21, "trial": 25, "rt": 545, "response": "Beta"}, "26": {"stimulus": 43, "trial": 26, "rt": 113, "response": "Beta"}, "27": {"stimulus": 25, "trial": 27, "rt": 177, "response": "Alpha"}, "20": {"stimulus": 59, "trial": 20, "rt": 413, "response": "Beta"}, "21": {"stimulus": 0, "trial": 21, "rt": 251, "response": "Beta"}, "22": {"stimulus": 55, "trial": 22, "rt": 231, "response": "Alpha"}, "23": {"stimulus": 32, "trial": 23, "rt": 238, "response": "Beta"}, "46": {"stimulus": 6, "trial": 46, "rt": 455, "response": "Alpha"}, "47": {"stimulus": 17, "trial": 47, "rt": 227, "response": "Alpha"}, "44": {"stimulus": 5, "trial": 44, "rt": 1492, "response": "Beta"}, "45": {"stimulus": 64, "trial": 45, "rt": 205, "response": "Beta"}, "28": {"stimulus": 4, "trial": 28, "rt": 162, "response": "Beta"}, "29": {"stimulus": 67, "trial": 29, "rt": 153, "response": "Beta"}, "40": {"stimulus": 14, "trial": 40, "rt": 843, "response": "Alpha"}, "41": {"stimulus": 28, "trial": 41, "rt": 357, "response": "Alpha"}, "1": {"stimulus": 34, "trial": 1, "rt": 654, "response": "Beta"}, "0": {"stimulus": 80, "trial": 0, "rt": 13524, "response": "Alpha"}, "3": {"stimulus": 71, "trial": 3, "rt": 598, "response": "Beta"}, "2": {"stimulus": 48, "trial": 2, "rt": 3316, "response": "Alpha"}, "5": {"stimulus": 65, "trial": 5, "rt": 870, "response": "Alpha"}, "4": {"stimulus": 57, "trial": 4, "rt": 2025, "response": "Beta"}, "7": {"stimulus": 60, "trial": 7, "rt": 295, "response": "Alpha"}, "6": {"stimulus": 62, "trial": 6, "rt": 284, "response": "Beta"}, "9": {"stimulus": 76, "trial": 9, "rt": 158, "response": "Beta"}, "8": {"stimulus": 75, "trial": 8, "rt": 180, "response": "Beta"}, "78": {"stimulus": 53, "trial": 78, "rt": 432, "response": "Beta"}, "51": {"stimulus": 45, "trial": 51, "rt": 127, "response": "Alpha"}, "39": {"stimulus": 33, "trial": 39, "rt": 228, "response": "Beta"}, "65": {"stimulus": 42, "trial": 65, "rt": 183, "response": "Beta"}, "76": {"stimulus": 41, "trial": 76, "rt": 209, "response": "Beta"}, "75": {"stimulus": 79, "trial": 75, "rt": 2256, "response": "Alpha"}, "38": {"stimulus": 56, "trial": 38, "rt": 239, "response": "Alpha"}, "73": {"stimulus": 7, "trial": 73, "rt": 290, "response": "Beta"}, "72": {"stimulus": 44, "trial": 72, "rt": 416, "response": "Beta"}, "71": {"stimulus": 61, "trial": 71, "rt": 176, "response": "Beta"}, "70": {"stimulus": 24, "trial": 70, "rt": 300, "response": "Alpha"}, "59": {"stimulus": 46, "trial": 59, "rt": 221, "response": "Alpha"}, "79": {"stimulus": 63, "trial": 79, "rt": 205, "response": "Alpha"}, "58": {"stimulus": 78, "trial": 58, "rt": 290, "response": "Alpha"}, "11": {"stimulus": 16, "trial": 11, "rt": 253, "response": "Beta"}, "10": {"stimulus": 70, "trial": 10, "rt": 1116, "response": "Alpha"}, "13": {"stimulus": 77, "trial": 13, "rt": 260, "response": "Beta"}, "12": {"stimulus": 35, "trial": 12, "rt": 117, "response": "Alpha"}, "15": {"stimulus": 38, "trial": 15, "rt": 262, "response": "Alpha"}, "14": {"stimulus": 51, "trial": 14, "rt": 498, "response": "Alpha"}, "17": {"stimulus": 37, "trial": 17, "rt": 184, "response": "Beta"}, "16": {"stimulus": 54, "trial": 16, "rt": 2789, "response": "Alpha"}, "19": {"stimulus": 72, "trial": 19, "rt": 250, "response": "Beta"}, "18": {"stimulus": 1, "trial": 18, "rt": 156, "response": "Beta"}, "31": {"stimulus": 20, "trial": 31, "rt": 121, "response": "Beta"}, "30": {"stimulus": 68, "trial": 30, "rt": 808, "response": "Beta"}, "37": {"stimulus": 12, "trial": 37, "rt": 285, "response": "Beta"}, "36": {"stimulus": 69, "trial": 36, "rt": 684, "response": "Alpha"}, "35": {"stimulus": 26, "trial": 35, "rt": 105, "response": "Beta"}, "34": {"stimulus": 66, "trial": 34, "rt": 517, "response": "Beta"}, "33": {"stimulus": 73, "trial": 33, "rt": 260, "response": "Beta"}, "55": {"stimulus": 49, "trial": 55, "rt": 267, "response": "Beta"}, "74": {"stimulus": 30, "trial": 74, "rt": 224, "response": "Beta"}, "32": {"stimulus": 74, "trial": 32, "rt": 104, "response": "Beta"}, "57": {"stimulus": 8, "trial": 57, "rt": 172, "response": "Beta"}, "50": {"stimulus": 36, "trial": 50, "rt": 104, "response": "Beta"}}}