{"generation": {"1": {"stimulus": 80, "trial": 1, "rt": 18139}, "0": {"stimulus": 72, "trial": 0, "rt": 22385}, "3": {"stimulus": 73, "trial": 3, "rt": 7483}, "2": {"stimulus": 70, "trial": 2, "rt": 13787}}, "info": {"finish": 1482181762275, "participant": 133, "exposed": true, "lab": false, "start": 1482181480428, "counterbalance": 0, "condition": "Bottom", "browser": {"platform": "MacIntel", "userAgent": "Mozilla/5.0 (Macintosh; Intel Mac OS X 10_12_0) AppleWebKit/537.36 (KHTML, like Gecko) Chrome/55.0.2883.95 Safari/537.36"}}, "experiment": {"Paradigm": "TACL", "Stimuli": "Size-Color Squares", "Experiment": "Generating-Categories"}, "observation": {"11": {"stimulus": 32, "trial": 11, "rt": 1545}, "10": {"stimulus": 30, "trial": 10, "rt": 1756}, "1": {"stimulus": 30, "trial": 1, "rt": 9246}, "0": {"stimulus": 32, "trial": 0, "rt": 7734}, "3": {"stimulus": 14, "trial": 3, "rt": 2362}, "2": {"stimulus": 12, "trial": 2, "rt": 4895}, "5": {"stimulus": 32, "trial": 5, "rt": 1959}, "4": {"stimulus": 30, "trial": 4, "rt": 2396}, "7": {"stimulus": 12, "trial": 7, "rt": 1747}, "6": {"stimulus": 14, "trial": 6, "rt": 2015}, "9": {"stimulus": 14, "trial": 9, "rt": 1666}, "8": {"stimulus": 12, "trial": 8, "rt": 1737}}, "generalization": {"56": {"stimulus": 12, "trial": 56, "rt": 1296, "response": "Alpha"}, "77": {"stimulus": 43, "trial": 77, "rt": 1230, "response": "Alpha"}, "54": {"stimulus": 52, "trial": 54, "rt": 1423, "response": "Beta"}, "42": {"stimulus": 59, "trial": 42, "rt": 1044, "response": "Beta"}, "48": {"stimulus": 23, "trial": 48, "rt": 1147, "response": "Alpha"}, "43": {"stimulus": 56, "trial": 43, "rt": 2798, "response": "Beta"}, "60": {"stimulus": 63, "trial": 60, "rt": 1406, "response": "Beta"}, "61": {"stimulus": 36, "trial": 61, "rt": 1268, "response": "Beta"}, "62": {"stimulus": 15, "trial": 62, "rt": 1109, "response": "Alpha"}, "63": {"stimulus": 57, "trial": 63, "rt": 1238, "response": "Beta"}, "64": {"stimulus": 34, "trial": 64, "rt": 1080, "response": "Alpha"}, "49": {"stimulus": 24, "trial": 49, "rt": 1287, "response": "Alpha"}, "66": {"stimulus": 72, "trial": 66, "rt": 916, "response": "Beta"}, "67": {"stimulus": 28, "trial": 67, "rt": 945, "response": "Alpha"}, "68": {"stimulus": 78, "trial": 68, "rt": 1026, "response": "Beta"}, "69": {"stimulus": 6, "trial": 69, "rt": 1286, "response": "Alpha"}, "80": {"stimulus": 41, "trial": 80, "rt": 1382, "response": "Alpha"}, "52": {"stimulus": 13, "trial": 52, "rt": 1075, "response": "Alpha"}, "53": {"stimulus": 8, "trial": 53, "rt": 988, "response": "Alpha"}, "24": {"stimulus": 67, "trial": 24, "rt": 1283, "response": "Beta"}, "25": {"stimulus": 55, "trial": 25, "rt": 1326, "response": "Beta"}, "26": {"stimulus": 30, "trial": 26, "rt": 1080, "response": "Alpha"}, "27": {"stimulus": 40, "trial": 27, "rt": 1813, "response": "Alpha"}, "20": {"stimulus": 50, "trial": 20, "rt": 1318, "response": "Beta"}, "21": {"stimulus": 25, "trial": 21, "rt": 932, "response": "Alpha"}, "22": {"stimulus": 39, "trial": 22, "rt": 1222, "response": "Alpha"}, "23": {"stimulus": 65, "trial": 23, "rt": 1126, "response": "Beta"}, "46": {"stimulus": 45, "trial": 46, "rt": 1517, "response": "Alpha"}, "47": {"stimulus": 17, "trial": 47, "rt": 1312, "response": "Alpha"}, "44": {"stimulus": 2, "trial": 44, "rt": 1734, "response": "Alpha"}, "45": {"stimulus": 31, "trial": 45, "rt": 860, "response": "Alpha"}, "28": {"stimulus": 18, "trial": 28, "rt": 1659, "response": "Alpha"}, "29": {"stimulus": 75, "trial": 29, "rt": 1065, "response": "Beta"}, "40": {"stimulus": 48, "trial": 40, "rt": 939, "response": "Alpha"}, "41": {"stimulus": 46, "trial": 41, "rt": 1099, "response": "Alpha"}, "1": {"stimulus": 54, "trial": 1, "rt": 1699, "response": "Beta"}, "0": {"stimulus": 33, "trial": 0, "rt": 2910, "response": "Alpha"}, "3": {"stimulus": 1, "trial": 3, "rt": 1412, "response": "Alpha"}, "2": {"stimulus": 38, "trial": 2, "rt": 1559, "response": "Alpha"}, "5": {"stimulus": 11, "trial": 5, "rt": 1130, "response": "Alpha"}, "4": {"stimulus": 51, "trial": 4, "rt": 2544, "response": "Beta"}, "7": {"stimulus": 69, "trial": 7, "rt": 1464, "response": "Beta"}, "6": {"stimulus": 0, "trial": 6, "rt": 1220, "response": "Alpha"}, "9": {"stimulus": 35, "trial": 9, "rt": 1383, "response": "Alpha"}, "8": {"stimulus": 47, "trial": 8, "rt": 1805, "response": "Alpha"}, "78": {"stimulus": 22, "trial": 78, "rt": 927, "response": "Alpha"}, "51": {"stimulus": 80, "trial": 51, "rt": 1193, "response": "Beta"}, "39": {"stimulus": 4, "trial": 39, "rt": 1056, "response": "Alpha"}, "65": {"stimulus": 77, "trial": 65, "rt": 1158, "response": "Beta"}, "76": {"stimulus": 68, "trial": 76, "rt": 1010, "response": "Beta"}, "75": {"stimulus": 21, "trial": 75, "rt": 1072, "response": "Alpha"}, "38": {"stimulus": 66, "trial": 38, "rt": 1058, "response": "Beta"}, "73": {"stimulus": 44, "trial": 73, "rt": 867, "response": "Alpha"}, "72": {"stimulus": 53, "trial": 72, "rt": 1143, "response": "Alpha"}, "71": {"stimulus": 14, "trial": 71, "rt": 1522, "response": "Alpha"}, "70": {"stimulus": 3, "trial": 70, "rt": 939, "response": "Alpha"}, "59": {"stimulus": 64, "trial": 59, "rt": 1064, "response": "Beta"}, "79": {"stimulus": 74, "trial": 79, "rt": 1028, "response": "Beta"}, "58": {"stimulus": 73, "trial": 58, "rt": 1112, "response": "Beta"}, "11": {"stimulus": 37, "trial": 11, "rt": 1535, "response": "Beta"}, "10": {"stimulus": 42, "trial": 10, "rt": 1474, "response": "Alpha"}, "13": {"stimulus": 76, "trial": 13, "rt": 1430, "response": "Beta"}, "12": {"stimulus": 79, "trial": 12, "rt": 1164, "response": "Beta"}, "15": {"stimulus": 9, "trial": 15, "rt": 957, "response": "Alpha"}, "14": {"stimulus": 20, "trial": 14, "rt": 1144, "response": "Alpha"}, "17": {"stimulus": 29, "trial": 17, "rt": 1349, "response": "Alpha"}, "16": {"stimulus": 5, "trial": 16, "rt": 1195, "response": "Alpha"}, "19": {"stimulus": 26, "trial": 19, "rt": 1044, "response": "Alpha"}, "18": {"stimulus": 60, "trial": 18, "rt": 1035, "response": "Beta"}, "31": {"stimulus": 32, "trial": 31, "rt": 1158, "response": "Alpha"}, "30": {"stimulus": 58, "trial": 30, "rt": 1226, "response": "Beta"}, "37": {"stimulus": 62, "trial": 37, "rt": 1298, "response": "Beta"}, "36": {"stimulus": 7, "trial": 36, "rt": 1289, "response": "Alpha"}, "35": {"stimulus": 27, "trial": 35, "rt": 868, "response": "Alpha"}, "34": {"stimulus": 49, "trial": 34, "rt": 1095, "response": "Beta"}, "33": {"stimulus": 70, "trial": 33, "rt": 1233, "response": "Beta"}, "55": {"stimulus": 71, "trial": 55, "rt": 1034, "response": "Beta"}, "74": {"stimulus": 61, "trial": 74, "rt": 914, "response": "Alpha"}, "32": {"stimulus": 19, "trial": 32, "rt": 1166, "response": "Alpha"}, "57": {"stimulus": 16, "trial": 57, "rt": 1106, "response": "Alpha"}, "50": {"stimulus": 10, "trial": 50, "rt": 1372, "response": "Alpha"}}}