{"generation": {"1": {"stimulus": 71, "trial": 1, "rt": 8002}, "0": {"stimulus": 80, "trial": 0, "rt": 32907}, "3": {"stimulus": 52, "trial": 3, "rt": 8687}, "2": {"stimulus": 8, "trial": 2, "rt": 7404}}, "info": {"finish": 1482181764623, "participant": 135, "exposed": true, "lab": false, "start": 1482181483229, "counterbalance": 4, "condition": "Bottom", "browser": {"platform": "Win32", "userAgent": "Mozilla/5.0 (Windows NT 10.0; WOW64) AppleWebKit/537.36 (KHTML, like Gecko) Chrome/55.0.2883.87 Safari/537.36"}}, "experiment": {"Paradigm": "TACL", "Stimuli": "Size-Color Squares", "Experiment": "Generating-Categories"}, "observation": {"11": {"stimulus": 14, "trial": 11, "rt": 1435}, "10": {"stimulus": 12, "trial": 10, "rt": 1466}, "1": {"stimulus": 30, "trial": 1, "rt": 2496}, "0": {"stimulus": 12, "trial": 0, "rt": 4135}, "3": {"stimulus": 32, "trial": 3, "rt": 2586}, "2": {"stimulus": 14, "trial": 2, "rt": 2971}, "5": {"stimulus": 32, "trial": 5, "rt": 1955}, "4": {"stimulus": 14, "trial": 4, "rt": 1916}, "7": {"stimulus": 30, "trial": 7, "rt": 2626}, "6": {"stimulus": 12, "trial": 6, "rt": 4505}, "9": {"stimulus": 30, "trial": 9, "rt": 2243}, "8": {"stimulus": 32, "trial": 8, "rt": 4011}}, "generalization": {"56": {"stimulus": 51, "trial": 56, "rt": 1179, "response": "Alpha"}, "77": {"stimulus": 21, "trial": 77, "rt": 808, "response": "Alpha"}, "54": {"stimulus": 46, "trial": 54, "rt": 642, "response": "Alpha"}, "42": {"stimulus": 75, "trial": 42, "rt": 738, "response": "Alpha"}, "48": {"stimulus": 31, "trial": 48, "rt": 546, "response": "Alpha"}, "43": {"stimulus": 5, "trial": 43, "rt": 912, "response": "Alpha"}, "60": {"stimulus": 19, "trial": 60, "rt": 579, "response": "Alpha"}, "61": {"stimulus": 22, "trial": 61, "rt": 731, "response": "Alpha"}, "62": {"stimulus": 6, "trial": 62, "rt": 1059, "response": "Beta"}, "63": {"stimulus": 15, "trial": 63, "rt": 1170, "response": "Beta"}, "64": {"stimulus": 80, "trial": 64, "rt": 908, "response": "Beta"}, "49": {"stimulus": 27, "trial": 49, "rt": 930, "response": "Alpha"}, "66": {"stimulus": 33, "trial": 66, "rt": 2187, "response": "Alpha"}, "67": {"stimulus": 79, "trial": 67, "rt": 930, "response": "Beta"}, "68": {"stimulus": 9, "trial": 68, "rt": 1043, "response": "Alpha"}, "69": {"stimulus": 1, "trial": 69, "rt": 1756, "response": "Alpha"}, "80": {"stimulus": 70, "trial": 80, "rt": 679, "response": "Alpha"}, "52": {"stimulus": 35, "trial": 52, "rt": 1067, "response": "Beta"}, "53": {"stimulus": 2, "trial": 53, "rt": 1195, "response": "Alpha"}, "24": {"stimulus": 65, "trial": 24, "rt": 1834, "response": "Alpha"}, "25": {"stimulus": 23, "trial": 25, "rt": 975, "response": "Alpha"}, "26": {"stimulus": 63, "trial": 26, "rt": 779, "response": "Alpha"}, "27": {"stimulus": 29, "trial": 27, "rt": 739, "response": "Alpha"}, "20": {"stimulus": 26, "trial": 20, "rt": 698, "response": "Beta"}, "21": {"stimulus": 64, "trial": 21, "rt": 915, "response": "Alpha"}, "22": {"stimulus": 69, "trial": 22, "rt": 1202, "response": "Alpha"}, "23": {"stimulus": 36, "trial": 23, "rt": 819, "response": "Beta"}, "46": {"stimulus": 13, "trial": 46, "rt": 651, "response": "Alpha"}, "47": {"stimulus": 74, "trial": 47, "rt": 554, "response": "Alpha"}, "44": {"stimulus": 73, "trial": 44, "rt": 723, "response": "Alpha"}, "45": {"stimulus": 60, "trial": 45, "rt": 811, "response": "Alpha"}, "28": {"stimulus": 39, "trial": 28, "rt": 1402, "response": "Alpha"}, "29": {"stimulus": 16, "trial": 29, "rt": 1258, "response": "Beta"}, "40": {"stimulus": 32, "trial": 40, "rt": 1051, "response": "Alpha"}, "41": {"stimulus": 3, "trial": 41, "rt": 884, "response": "Alpha"}, "1": {"stimulus": 59, "trial": 1, "rt": 1670, "response": "Alpha"}, "0": {"stimulus": 62, "trial": 0, "rt": 2050, "response": "Beta"}, "3": {"stimulus": 42, "trial": 3, "rt": 854, "response": "Alpha"}, "2": {"stimulus": 50, "trial": 2, "rt": 1488, "response": "Alpha"}, "5": {"stimulus": 14, "trial": 5, "rt": 1339, "response": "Alpha"}, "4": {"stimulus": 48, "trial": 4, "rt": 818, "response": "Alpha"}, "7": {"stimulus": 8, "trial": 7, "rt": 947, "response": "Beta"}, "6": {"stimulus": 30, "trial": 6, "rt": 827, "response": "Alpha"}, "9": {"stimulus": 56, "trial": 9, "rt": 1003, "response": "Alpha"}, "8": {"stimulus": 0, "trial": 8, "rt": 1579, "response": "Alpha"}, "78": {"stimulus": 66, "trial": 78, "rt": 828, "response": "Alpha"}, "51": {"stimulus": 18, "trial": 51, "rt": 650, "response": "Alpha"}, "39": {"stimulus": 71, "trial": 39, "rt": 1235, "response": "Beta"}, "65": {"stimulus": 54, "trial": 65, "rt": 764, "response": "Alpha"}, "76": {"stimulus": 45, "trial": 76, "rt": 668, "response": "Alpha"}, "75": {"stimulus": 11, "trial": 75, "rt": 602, "response": "Alpha"}, "38": {"stimulus": 47, "trial": 38, "rt": 946, "response": "Alpha"}, "73": {"stimulus": 41, "trial": 73, "rt": 783, "response": "Alpha"}, "72": {"stimulus": 52, "trial": 72, "rt": 1555, "response": "Beta"}, "71": {"stimulus": 7, "trial": 71, "rt": 748, "response": "Beta"}, "70": {"stimulus": 12, "trial": 70, "rt": 891, "response": "Alpha"}, "59": {"stimulus": 77, "trial": 59, "rt": 819, "response": "Alpha"}, "79": {"stimulus": 78, "trial": 79, "rt": 924, "response": "Alpha"}, "58": {"stimulus": 55, "trial": 58, "rt": 643, "response": "Alpha"}, "11": {"stimulus": 43, "trial": 11, "rt": 1139, "response": "Beta"}, "10": {"stimulus": 72, "trial": 10, "rt": 730, "response": "Alpha"}, "13": {"stimulus": 38, "trial": 13, "rt": 1163, "response": "Alpha"}, "12": {"stimulus": 40, "trial": 12, "rt": 906, "response": "Alpha"}, "15": {"stimulus": 10, "trial": 15, "rt": 810, "response": "Alpha"}, "14": {"stimulus": 53, "trial": 14, "rt": 1041, "response": "Beta"}, "17": {"stimulus": 34, "trial": 17, "rt": 1329, "response": "Alpha"}, "16": {"stimulus": 44, "trial": 16, "rt": 954, "response": "Beta"}, "19": {"stimulus": 68, "trial": 19, "rt": 1004, "response": "Alpha"}, "18": {"stimulus": 61, "trial": 18, "rt": 1234, "response": "Alpha"}, "31": {"stimulus": 24, "trial": 31, "rt": 659, "response": "Alpha"}, "30": {"stimulus": 49, "trial": 30, "rt": 841, "response": "Alpha"}, "37": {"stimulus": 4, "trial": 37, "rt": 2019, "response": "Alpha"}, "36": {"stimulus": 17, "trial": 36, "rt": 1187, "response": "Beta"}, "35": {"stimulus": 76, "trial": 35, "rt": 698, "response": "Alpha"}, "34": {"stimulus": 67, "trial": 34, "rt": 1163, "response": "Alpha"}, "33": {"stimulus": 28, "trial": 33, "rt": 586, "response": "Alpha"}, "55": {"stimulus": 20, "trial": 55, "rt": 689, "response": "Alpha"}, "74": {"stimulus": 25, "trial": 74, "rt": 1315, "response": "Beta"}, "32": {"stimulus": 37, "trial": 32, "rt": 705, "response": "Alpha"}, "57": {"stimulus": 58, "trial": 57, "rt": 787, "response": "Alpha"}, "50": {"stimulus": 57, "trial": 50, "rt": 723, "response": "Alpha"}}}