{"generation": {"1": {"stimulus": 8, "trial": 1, "rt": 4757}, "0": {"stimulus": 0, "trial": 0, "rt": 6354}, "3": {"stimulus": 72, "trial": 3, "rt": 6487}, "2": {"stimulus": 4, "trial": 2, "rt": 3515}}, "info": {"finish": 1482181684199, "participant": 136, "exposed": true, "lab": false, "start": 1482181490514, "counterbalance": 5, "condition": "Middle", "browser": {"platform": "MacIntel", "userAgent": "Mozilla/5.0 (Macintosh; Intel Mac OS X 10_12_0) AppleWebKit/537.36 (KHTML, like Gecko) Chrome/55.0.2883.95 Safari/537.36"}}, "experiment": {"Paradigm": "TACL", "Stimuli": "Size-Color Squares", "Experiment": "Generating-Categories"}, "observation": {"11": {"stimulus": 48, "trial": 11, "rt": 1285}, "10": {"stimulus": 30, "trial": 10, "rt": 872}, "1": {"stimulus": 50, "trial": 1, "rt": 1666}, "0": {"stimulus": 30, "trial": 0, "rt": 2143}, "3": {"stimulus": 32, "trial": 3, "rt": 1054}, "2": {"stimulus": 48, "trial": 2, "rt": 1334}, "5": {"stimulus": 50, "trial": 5, "rt": 861}, "4": {"stimulus": 32, "trial": 4, "rt": 1079}, "7": {"stimulus": 48, "trial": 7, "rt": 1007}, "6": {"stimulus": 30, "trial": 6, "rt": 1182}, "9": {"stimulus": 50, "trial": 9, "rt": 892}, "8": {"stimulus": 32, "trial": 8, "rt": 862}}, "generalization": {"56": {"stimulus": 38, "trial": 56, "rt": 664, "response": "Alpha"}, "77": {"stimulus": 13, "trial": 77, "rt": 813, "response": "Alpha"}, "54": {"stimulus": 53, "trial": 54, "rt": 572, "response": "Beta"}, "42": {"stimulus": 48, "trial": 42, "rt": 546, "response": "Alpha"}, "48": {"stimulus": 54, "trial": 48, "rt": 597, "response": "Alpha"}, "43": {"stimulus": 62, "trial": 43, "rt": 622, "response": "Beta"}, "60": {"stimulus": 44, "trial": 60, "rt": 1231, "response": "Beta"}, "61": {"stimulus": 72, "trial": 61, "rt": 824, "response": "Beta"}, "62": {"stimulus": 73, "trial": 62, "rt": 1295, "response": "Alpha"}, "63": {"stimulus": 8, "trial": 63, "rt": 1279, "response": "Beta"}, "64": {"stimulus": 20, "trial": 64, "rt": 792, "response": "Alpha"}, "49": {"stimulus": 41, "trial": 49, "rt": 1583, "response": "Alpha"}, "66": {"stimulus": 34, "trial": 66, "rt": 870, "response": "Beta"}, "67": {"stimulus": 57, "trial": 67, "rt": 1130, "response": "Alpha"}, "68": {"stimulus": 77, "trial": 68, "rt": 693, "response": "Alpha"}, "69": {"stimulus": 51, "trial": 69, "rt": 708, "response": "Beta"}, "80": {"stimulus": 27, "trial": 80, "rt": 1546, "response": "Beta"}, "52": {"stimulus": 70, "trial": 52, "rt": 717, "response": "Beta"}, "53": {"stimulus": 64, "trial": 53, "rt": 879, "response": "Beta"}, "24": {"stimulus": 75, "trial": 24, "rt": 628, "response": "Alpha"}, "25": {"stimulus": 59, "trial": 25, "rt": 965, "response": "Beta"}, "26": {"stimulus": 42, "trial": 26, "rt": 649, "response": "Beta"}, "27": {"stimulus": 31, "trial": 27, "rt": 1279, "response": "Alpha"}, "20": {"stimulus": 65, "trial": 20, "rt": 925, "response": "Alpha"}, "21": {"stimulus": 28, "trial": 21, "rt": 686, "response": "Beta"}, "22": {"stimulus": 55, "trial": 22, "rt": 552, "response": "Beta"}, "23": {"stimulus": 19, "trial": 23, "rt": 1008, "response": "Alpha"}, "46": {"stimulus": 18, "trial": 46, "rt": 1334, "response": "Beta"}, "47": {"stimulus": 61, "trial": 47, "rt": 664, "response": "Beta"}, "44": {"stimulus": 71, "trial": 44, "rt": 635, "response": "Beta"}, "45": {"stimulus": 56, "trial": 45, "rt": 1367, "response": "Alpha"}, "28": {"stimulus": 23, "trial": 28, "rt": 880, "response": "Alpha"}, "29": {"stimulus": 52, "trial": 29, "rt": 617, "response": "Beta"}, "40": {"stimulus": 39, "trial": 40, "rt": 935, "response": "Alpha"}, "41": {"stimulus": 47, "trial": 41, "rt": 1162, "response": "Alpha"}, "1": {"stimulus": 6, "trial": 1, "rt": 752, "response": "Beta"}, "0": {"stimulus": 49, "trial": 0, "rt": 1597, "response": "Alpha"}, "3": {"stimulus": 33, "trial": 3, "rt": 829, "response": "Alpha"}, "2": {"stimulus": 60, "trial": 2, "rt": 1920, "response": "Beta"}, "5": {"stimulus": 68, "trial": 5, "rt": 1080, "response": "Alpha"}, "4": {"stimulus": 43, "trial": 4, "rt": 2004, "response": "Beta"}, "7": {"stimulus": 9, "trial": 7, "rt": 854, "response": "Beta"}, "6": {"stimulus": 40, "trial": 6, "rt": 633, "response": "Alpha"}, "9": {"stimulus": 80, "trial": 9, "rt": 905, "response": "Beta"}, "8": {"stimulus": 24, "trial": 8, "rt": 951, "response": "Alpha"}, "78": {"stimulus": 5, "trial": 78, "rt": 533, "response": "Alpha"}, "51": {"stimulus": 36, "trial": 51, "rt": 756, "response": "Beta"}, "39": {"stimulus": 10, "trial": 39, "rt": 596, "response": "Beta"}, "65": {"stimulus": 63, "trial": 65, "rt": 548, "response": "Beta"}, "76": {"stimulus": 32, "trial": 76, "rt": 629, "response": "Alpha"}, "75": {"stimulus": 14, "trial": 75, "rt": 934, "response": "Alpha"}, "38": {"stimulus": 17, "trial": 38, "rt": 670, "response": "Beta"}, "73": {"stimulus": 7, "trial": 73, "rt": 677, "response": "Beta"}, "72": {"stimulus": 58, "trial": 72, "rt": 879, "response": "Alpha"}, "71": {"stimulus": 4, "trial": 71, "rt": 1034, "response": "Alpha"}, "70": {"stimulus": 11, "trial": 70, "rt": 1302, "response": "Alpha"}, "59": {"stimulus": 21, "trial": 59, "rt": 863, "response": "Beta"}, "79": {"stimulus": 66, "trial": 79, "rt": 1110, "response": "Alpha"}, "58": {"stimulus": 3, "trial": 58, "rt": 837, "response": "Alpha"}, "11": {"stimulus": 45, "trial": 11, "rt": 964, "response": "Beta"}, "10": {"stimulus": 30, "trial": 10, "rt": 622, "response": "Alpha"}, "13": {"stimulus": 15, "trial": 13, "rt": 787, "response": "Beta"}, "12": {"stimulus": 76, "trial": 12, "rt": 2049, "response": "Alpha"}, "15": {"stimulus": 50, "trial": 15, "rt": 958, "response": "Alpha"}, "14": {"stimulus": 69, "trial": 14, "rt": 725, "response": "Beta"}, "17": {"stimulus": 16, "trial": 17, "rt": 797, "response": "Alpha"}, "16": {"stimulus": 2, "trial": 16, "rt": 735, "response": "Beta"}, "19": {"stimulus": 35, "trial": 19, "rt": 526, "response": "Beta"}, "18": {"stimulus": 25, "trial": 18, "rt": 633, "response": "Beta"}, "31": {"stimulus": 37, "trial": 31, "rt": 1681, "response": "Beta"}, "30": {"stimulus": 26, "trial": 30, "rt": 685, "response": "Beta"}, "37": {"stimulus": 22, "trial": 37, "rt": 628, "response": "Beta"}, "36": {"stimulus": 78, "trial": 36, "rt": 2748, "response": "Alpha"}, "35": {"stimulus": 1, "trial": 35, "rt": 1693, "response": "Beta"}, "34": {"stimulus": 67, "trial": 34, "rt": 958, "response": "Alpha"}, "33": {"stimulus": 46, "trial": 33, "rt": 1062, "response": "Beta"}, "55": {"stimulus": 74, "trial": 55, "rt": 736, "response": "Alpha"}, "74": {"stimulus": 0, "trial": 74, "rt": 557, "response": "Beta"}, "32": {"stimulus": 79, "trial": 32, "rt": 946, "response": "Beta"}, "57": {"stimulus": 29, "trial": 57, "rt": 533, "response": "Alpha"}, "50": {"stimulus": 12, "trial": 50, "rt": 658, "response": "Alpha"}}}