{"generation": {"1": {"stimulus": 8, "trial": 1, "rt": 7767}, "0": {"stimulus": 45, "trial": 0, "rt": 10846}, "3": {"stimulus": 72, "trial": 3, "rt": 5258}, "2": {"stimulus": 80, "trial": 2, "rt": 4636}}, "info": {"finish": 1482182011209, "participant": 137, "exposed": true, "lab": false, "start": 1482181490715, "counterbalance": 4, "condition": "Middle", "browser": {"platform": "MacIntel", "userAgent": "Mozilla/5.0 (Macintosh; Intel Mac OS X 10.11; rv:50.0) Gecko/20100101 Firefox/50.0"}}, "experiment": {"Paradigm": "TACL", "Stimuli": "Size-Color Squares", "Experiment": "Generating-Categories"}, "observation": {"11": {"stimulus": 48, "trial": 11, "rt": 1028}, "10": {"stimulus": 30, "trial": 10, "rt": 939}, "1": {"stimulus": 50, "trial": 1, "rt": 1401}, "0": {"stimulus": 30, "trial": 0, "rt": 1937}, "3": {"stimulus": 48, "trial": 3, "rt": 1034}, "2": {"stimulus": 32, "trial": 2, "rt": 1041}, "5": {"stimulus": 48, "trial": 5, "rt": 984}, "4": {"stimulus": 30, "trial": 4, "rt": 1362}, "7": {"stimulus": 32, "trial": 7, "rt": 982}, "6": {"stimulus": 50, "trial": 6, "rt": 1075}, "9": {"stimulus": 50, "trial": 9, "rt": 3200}, "8": {"stimulus": 32, "trial": 8, "rt": 957}}, "generalization": {"56": {"stimulus": 28, "trial": 56, "rt": 590, "response": "Beta"}, "77": {"stimulus": 74, "trial": 77, "rt": 1308, "response": "Alpha"}, "54": {"stimulus": 60, "trial": 54, "rt": 1377, "response": "Alpha"}, "42": {"stimulus": 3, "trial": 42, "rt": 745, "response": "Alpha"}, "48": {"stimulus": 73, "trial": 48, "rt": 756, "response": "Beta"}, "43": {"stimulus": 16, "trial": 43, "rt": 793, "response": "Alpha"}, "60": {"stimulus": 44, "trial": 60, "rt": 882, "response": "Alpha"}, "61": {"stimulus": 0, "trial": 61, "rt": 1024, "response": "Beta"}, "62": {"stimulus": 7, "trial": 62, "rt": 1184, "response": "Alpha"}, "63": {"stimulus": 67, "trial": 63, "rt": 1095, "response": "Alpha"}, "64": {"stimulus": 4, "trial": 64, "rt": 667, "response": "Alpha"}, "49": {"stimulus": 2, "trial": 49, "rt": 971, "response": "Beta"}, "66": {"stimulus": 18, "trial": 66, "rt": 746, "response": "Beta"}, "67": {"stimulus": 6, "trial": 67, "rt": 2735, "response": "Alpha"}, "68": {"stimulus": 46, "trial": 68, "rt": 1051, "response": "Beta"}, "69": {"stimulus": 47, "trial": 69, "rt": 1036, "response": "Alpha"}, "80": {"stimulus": 61, "trial": 80, "rt": 1287, "response": "Alpha"}, "52": {"stimulus": 71, "trial": 52, "rt": 801, "response": "Beta"}, "53": {"stimulus": 63, "trial": 53, "rt": 1093, "response": "Beta"}, "24": {"stimulus": 76, "trial": 24, "rt": 805, "response": "Alpha"}, "25": {"stimulus": 53, "trial": 25, "rt": 1501, "response": "Beta"}, "26": {"stimulus": 69, "trial": 26, "rt": 1016, "response": "Alpha"}, "27": {"stimulus": 29, "trial": 27, "rt": 1423, "response": "Beta"}, "20": {"stimulus": 42, "trial": 20, "rt": 1308, "response": "Alpha"}, "21": {"stimulus": 25, "trial": 21, "rt": 1680, "response": "Alpha"}, "22": {"stimulus": 62, "trial": 22, "rt": 2335, "response": "Beta"}, "23": {"stimulus": 78, "trial": 23, "rt": 1095, "response": "Alpha"}, "46": {"stimulus": 38, "trial": 46, "rt": 3243, "response": "Beta"}, "47": {"stimulus": 55, "trial": 47, "rt": 793, "response": "Beta"}, "44": {"stimulus": 13, "trial": 44, "rt": 755, "response": "Alpha"}, "45": {"stimulus": 57, "trial": 45, "rt": 1097, "response": "Alpha"}, "28": {"stimulus": 23, "trial": 28, "rt": 1532, "response": "Alpha"}, "29": {"stimulus": 52, "trial": 29, "rt": 2409, "response": "Alpha"}, "40": {"stimulus": 34, "trial": 40, "rt": 1116, "response": "Alpha"}, "41": {"stimulus": 22, "trial": 41, "rt": 811, "response": "Alpha"}, "1": {"stimulus": 33, "trial": 1, "rt": 1050, "response": "Alpha"}, "0": {"stimulus": 35, "trial": 0, "rt": 2378, "response": "Beta"}, "3": {"stimulus": 50, "trial": 3, "rt": 691, "response": "Alpha"}, "2": {"stimulus": 14, "trial": 2, "rt": 1018, "response": "Alpha"}, "5": {"stimulus": 43, "trial": 5, "rt": 785, "response": "Alpha"}, "4": {"stimulus": 24, "trial": 4, "rt": 764, "response": "Alpha"}, "7": {"stimulus": 30, "trial": 7, "rt": 1611, "response": "Alpha"}, "6": {"stimulus": 10, "trial": 6, "rt": 1306, "response": "Beta"}, "9": {"stimulus": 12, "trial": 9, "rt": 1598, "response": "Alpha"}, "8": {"stimulus": 59, "trial": 8, "rt": 837, "response": "Alpha"}, "78": {"stimulus": 51, "trial": 78, "rt": 1083, "response": "Alpha"}, "51": {"stimulus": 80, "trial": 51, "rt": 1465, "response": "Beta"}, "39": {"stimulus": 15, "trial": 39, "rt": 1893, "response": "Alpha"}, "65": {"stimulus": 37, "trial": 65, "rt": 1423, "response": "Beta"}, "76": {"stimulus": 70, "trial": 76, "rt": 1006, "response": "Alpha"}, "75": {"stimulus": 32, "trial": 75, "rt": 771, "response": "Alpha"}, "38": {"stimulus": 5, "trial": 38, "rt": 1277, "response": "Alpha"}, "73": {"stimulus": 26, "trial": 73, "rt": 969, "response": "Alpha"}, "72": {"stimulus": 49, "trial": 72, "rt": 977, "response": "Alpha"}, "71": {"stimulus": 19, "trial": 71, "rt": 995, "response": "Beta"}, "70": {"stimulus": 21, "trial": 70, "rt": 725, "response": "Alpha"}, "59": {"stimulus": 41, "trial": 59, "rt": 782, "response": "Alpha"}, "79": {"stimulus": 20, "trial": 79, "rt": 1893, "response": "Alpha"}, "58": {"stimulus": 77, "trial": 58, "rt": 948, "response": "Alpha"}, "11": {"stimulus": 31, "trial": 11, "rt": 777, "response": "Alpha"}, "10": {"stimulus": 58, "trial": 10, "rt": 789, "response": "Alpha"}, "13": {"stimulus": 65, "trial": 13, "rt": 2287, "response": "Beta"}, "12": {"stimulus": 40, "trial": 12, "rt": 669, "response": "Alpha"}, "15": {"stimulus": 8, "trial": 15, "rt": 1666, "response": "Alpha"}, "14": {"stimulus": 11, "trial": 14, "rt": 722, "response": "Beta"}, "17": {"stimulus": 27, "trial": 17, "rt": 925, "response": "Beta"}, "16": {"stimulus": 72, "trial": 16, "rt": 838, "response": "Beta"}, "19": {"stimulus": 45, "trial": 19, "rt": 680, "response": "Beta"}, "18": {"stimulus": 64, "trial": 18, "rt": 523, "response": "Beta"}, "31": {"stimulus": 9, "trial": 31, "rt": 802, "response": "Beta"}, "30": {"stimulus": 1, "trial": 30, "rt": 973, "response": "Beta"}, "37": {"stimulus": 56, "trial": 37, "rt": 1399, "response": "Alpha"}, "36": {"stimulus": 75, "trial": 36, "rt": 677, "response": "Alpha"}, "35": {"stimulus": 48, "trial": 35, "rt": 758, "response": "Alpha"}, "34": {"stimulus": 79, "trial": 34, "rt": 1396, "response": "Alpha"}, "33": {"stimulus": 66, "trial": 33, "rt": 891, "response": "Alpha"}, "55": {"stimulus": 36, "trial": 55, "rt": 1004, "response": "Beta"}, "74": {"stimulus": 68, "trial": 74, "rt": 800, "response": "Alpha"}, "32": {"stimulus": 39, "trial": 32, "rt": 1126, "response": "Alpha"}, "57": {"stimulus": 54, "trial": 57, "rt": 803, "response": "Beta"}, "50": {"stimulus": 17, "trial": 50, "rt": 1579, "response": "Beta"}}}