{"generation": {"1": {"stimulus": 79, "trial": 1, "rt": 6000}, "0": {"stimulus": 80, "trial": 0, "rt": 18686}, "3": {"stimulus": 76, "trial": 3, "rt": 5640}, "2": {"stimulus": 78, "trial": 2, "rt": 8742}}, "info": {"finish": 1482181749569, "participant": 139, "exposed": true, "lab": false, "start": 1482181502575, "counterbalance": 3, "condition": "Bottom", "browser": {"platform": "Win32", "userAgent": "Mozilla/5.0 (Windows NT 6.1; WOW64; rv:50.0) Gecko/20100101 Firefox/50.0"}}, "experiment": {"Paradigm": "TACL", "Stimuli": "Size-Color Squares", "Experiment": "Generating-Categories"}, "observation": {"11": {"stimulus": 14, "trial": 11, "rt": 1711}, "10": {"stimulus": 32, "trial": 10, "rt": 2103}, "1": {"stimulus": 14, "trial": 1, "rt": 1700}, "0": {"stimulus": 30, "trial": 0, "rt": 2930}, "3": {"stimulus": 12, "trial": 3, "rt": 1523}, "2": {"stimulus": 32, "trial": 2, "rt": 1709}, "5": {"stimulus": 14, "trial": 5, "rt": 1854}, "4": {"stimulus": 12, "trial": 4, "rt": 2141}, "7": {"stimulus": 30, "trial": 7, "rt": 1716}, "6": {"stimulus": 32, "trial": 6, "rt": 1810}, "9": {"stimulus": 30, "trial": 9, "rt": 2097}, "8": {"stimulus": 12, "trial": 8, "rt": 1644}}, "generalization": {"56": {"stimulus": 8, "trial": 56, "rt": 1045, "response": "Alpha"}, "77": {"stimulus": 49, "trial": 77, "rt": 704, "response": "Alpha"}, "54": {"stimulus": 40, "trial": 54, "rt": 651, "response": "Alpha"}, "42": {"stimulus": 13, "trial": 42, "rt": 897, "response": "Alpha"}, "48": {"stimulus": 14, "trial": 48, "rt": 872, "response": "Alpha"}, "43": {"stimulus": 1, "trial": 43, "rt": 2871, "response": "Alpha"}, "60": {"stimulus": 45, "trial": 60, "rt": 711, "response": "Alpha"}, "61": {"stimulus": 36, "trial": 61, "rt": 595, "response": "Alpha"}, "62": {"stimulus": 41, "trial": 62, "rt": 677, "response": "Alpha"}, "63": {"stimulus": 12, "trial": 63, "rt": 547, "response": "Alpha"}, "64": {"stimulus": 21, "trial": 64, "rt": 550, "response": "Alpha"}, "49": {"stimulus": 70, "trial": 49, "rt": 2016, "response": "Alpha"}, "66": {"stimulus": 19, "trial": 66, "rt": 641, "response": "Alpha"}, "67": {"stimulus": 69, "trial": 67, "rt": 1390, "response": "Beta"}, "68": {"stimulus": 32, "trial": 68, "rt": 903, "response": "Alpha"}, "69": {"stimulus": 37, "trial": 69, "rt": 761, "response": "Alpha"}, "80": {"stimulus": 5, "trial": 80, "rt": 807, "response": "Alpha"}, "52": {"stimulus": 53, "trial": 52, "rt": 682, "response": "Alpha"}, "53": {"stimulus": 34, "trial": 53, "rt": 773, "response": "Alpha"}, "24": {"stimulus": 25, "trial": 24, "rt": 893, "response": "Alpha"}, "25": {"stimulus": 51, "trial": 25, "rt": 765, "response": "Alpha"}, "26": {"stimulus": 29, "trial": 26, "rt": 774, "response": "Alpha"}, "27": {"stimulus": 47, "trial": 27, "rt": 737, "response": "Alpha"}, "20": {"stimulus": 39, "trial": 20, "rt": 850, "response": "Alpha"}, "21": {"stimulus": 73, "trial": 21, "rt": 1031, "response": "Beta"}, "22": {"stimulus": 10, "trial": 22, "rt": 859, "response": "Alpha"}, "23": {"stimulus": 72, "trial": 23, "rt": 974, "response": "Beta"}, "46": {"stimulus": 33, "trial": 46, "rt": 3268, "response": "Alpha"}, "47": {"stimulus": 78, "trial": 47, "rt": 1310, "response": "Beta"}, "44": {"stimulus": 22, "trial": 44, "rt": 869, "response": "Alpha"}, "45": {"stimulus": 75, "trial": 45, "rt": 4560, "response": "Beta"}, "28": {"stimulus": 74, "trial": 28, "rt": 1536, "response": "Beta"}, "29": {"stimulus": 35, "trial": 29, "rt": 750, "response": "Alpha"}, "40": {"stimulus": 9, "trial": 40, "rt": 1157, "response": "Alpha"}, "41": {"stimulus": 15, "trial": 41, "rt": 1007, "response": "Alpha"}, "1": {"stimulus": 56, "trial": 1, "rt": 1299, "response": "Alpha"}, "0": {"stimulus": 54, "trial": 0, "rt": 3686, "response": "Alpha"}, "3": {"stimulus": 30, "trial": 3, "rt": 1290, "response": "Alpha"}, "2": {"stimulus": 58, "trial": 2, "rt": 1248, "response": "Alpha"}, "5": {"stimulus": 0, "trial": 5, "rt": 1107, "response": "Alpha"}, "4": {"stimulus": 28, "trial": 4, "rt": 1252, "response": "Alpha"}, "7": {"stimulus": 66, "trial": 7, "rt": 3190, "response": "Beta"}, "6": {"stimulus": 24, "trial": 6, "rt": 1253, "response": "Alpha"}, "9": {"stimulus": 20, "trial": 9, "rt": 1102, "response": "Alpha"}, "8": {"stimulus": 79, "trial": 8, "rt": 1049, "response": "Beta"}, "78": {"stimulus": 60, "trial": 78, "rt": 1052, "response": "Alpha"}, "51": {"stimulus": 62, "trial": 51, "rt": 769, "response": "Alpha"}, "39": {"stimulus": 50, "trial": 39, "rt": 865, "response": "Alpha"}, "65": {"stimulus": 57, "trial": 65, "rt": 745, "response": "Alpha"}, "76": {"stimulus": 11, "trial": 76, "rt": 799, "response": "Alpha"}, "75": {"stimulus": 63, "trial": 75, "rt": 1650, "response": "Alpha"}, "38": {"stimulus": 59, "trial": 38, "rt": 722, "response": "Alpha"}, "73": {"stimulus": 16, "trial": 73, "rt": 959, "response": "Alpha"}, "72": {"stimulus": 77, "trial": 72, "rt": 918, "response": "Beta"}, "71": {"stimulus": 80, "trial": 71, "rt": 1089, "response": "Beta"}, "70": {"stimulus": 61, "trial": 70, "rt": 1415, "response": "Alpha"}, "59": {"stimulus": 7, "trial": 59, "rt": 541, "response": "Alpha"}, "79": {"stimulus": 18, "trial": 79, "rt": 831, "response": "Alpha"}, "58": {"stimulus": 17, "trial": 58, "rt": 5254, "response": "Alpha"}, "11": {"stimulus": 31, "trial": 11, "rt": 679, "response": "Alpha"}, "10": {"stimulus": 2, "trial": 10, "rt": 701, "response": "Alpha"}, "13": {"stimulus": 71, "trial": 13, "rt": 2865, "response": "Alpha"}, "12": {"stimulus": 43, "trial": 12, "rt": 770, "response": "Alpha"}, "15": {"stimulus": 64, "trial": 15, "rt": 1288, "response": "Alpha"}, "14": {"stimulus": 23, "trial": 14, "rt": 1817, "response": "Alpha"}, "17": {"stimulus": 4, "trial": 17, "rt": 891, "response": "Alpha"}, "16": {"stimulus": 3, "trial": 16, "rt": 894, "response": "Alpha"}, "19": {"stimulus": 76, "trial": 19, "rt": 1104, "response": "Beta"}, "18": {"stimulus": 46, "trial": 18, "rt": 828, "response": "Alpha"}, "31": {"stimulus": 26, "trial": 31, "rt": 726, "response": "Alpha"}, "30": {"stimulus": 67, "trial": 30, "rt": 7203, "response": "Alpha"}, "37": {"stimulus": 68, "trial": 37, "rt": 775, "response": "Alpha"}, "36": {"stimulus": 42, "trial": 36, "rt": 704, "response": "Alpha"}, "35": {"stimulus": 6, "trial": 35, "rt": 3223, "response": "Alpha"}, "34": {"stimulus": 27, "trial": 34, "rt": 1414, "response": "Alpha"}, "33": {"stimulus": 38, "trial": 33, "rt": 754, "response": "Alpha"}, "55": {"stimulus": 44, "trial": 55, "rt": 719, "response": "Alpha"}, "74": {"stimulus": 65, "trial": 74, "rt": 2190, "response": "Alpha"}, "32": {"stimulus": 55, "trial": 32, "rt": 640, "response": "Alpha"}, "57": {"stimulus": 48, "trial": 57, "rt": 654, "response": "Alpha"}, "50": {"stimulus": 52, "trial": 50, "rt": 1014, "response": "Alpha"}}}