{"generation": {"1": {"stimulus": 27, "trial": 1, "rt": 7768}, "0": {"stimulus": 63, "trial": 0, "rt": 13638}, "3": {"stimulus": 0, "trial": 3, "rt": 10069}, "2": {"stimulus": 9, "trial": 2, "rt": 7268}}, "info": {"finish": 1482182347143, "participant": 140, "exposed": true, "lab": false, "start": 1482181520725, "counterbalance": 7, "condition": "Bottom", "browser": {"platform": "Win32", "userAgent": "Mozilla/5.0 (Windows NT 10.0; WOW64) AppleWebKit/537.36 (KHTML, like Gecko) Chrome/54.0.2840.99 Safari/537.36"}}, "experiment": {"Paradigm": "TACL", "Stimuli": "Size-Color Squares", "Experiment": "Generating-Categories"}, "observation": {"11": {"stimulus": 14, "trial": 11, "rt": 1620}, "10": {"stimulus": 30, "trial": 10, "rt": 2064}, "1": {"stimulus": 12, "trial": 1, "rt": 1801}, "0": {"stimulus": 14, "trial": 0, "rt": 397017}, "3": {"stimulus": 30, "trial": 3, "rt": 6055}, "2": {"stimulus": 32, "trial": 2, "rt": 1100}, "5": {"stimulus": 12, "trial": 5, "rt": 1058}, "4": {"stimulus": 14, "trial": 4, "rt": 1721}, "7": {"stimulus": 30, "trial": 7, "rt": 1026}, "6": {"stimulus": 32, "trial": 6, "rt": 964}, "9": {"stimulus": 12, "trial": 9, "rt": 1581}, "8": {"stimulus": 32, "trial": 8, "rt": 1425}}, "generalization": {"56": {"stimulus": 45, "trial": 56, "rt": 1805, "response": "Beta"}, "77": {"stimulus": 60, "trial": 77, "rt": 1303, "response": "Beta"}, "54": {"stimulus": 1, "trial": 54, "rt": 1463, "response": "Beta"}, "42": {"stimulus": 4, "trial": 42, "rt": 512, "response": "Alpha"}, "48": {"stimulus": 14, "trial": 48, "rt": 548, "response": "Alpha"}, "43": {"stimulus": 39, "trial": 43, "rt": 572, "response": "Alpha"}, "60": {"stimulus": 69, "trial": 60, "rt": 1462, "response": "Alpha"}, "61": {"stimulus": 48, "trial": 61, "rt": 1616, "response": "Alpha"}, "62": {"stimulus": 19, "trial": 62, "rt": 1456, "response": "Beta"}, "63": {"stimulus": 31, "trial": 63, "rt": 1307, "response": "Alpha"}, "64": {"stimulus": 18, "trial": 64, "rt": 1128, "response": "Beta"}, "49": {"stimulus": 64, "trial": 49, "rt": 1486, "response": "Beta"}, "66": {"stimulus": 74, "trial": 66, "rt": 1125, "response": "Beta"}, "67": {"stimulus": 7, "trial": 67, "rt": 848, "response": "Alpha"}, "68": {"stimulus": 63, "trial": 68, "rt": 3540, "response": "Beta"}, "69": {"stimulus": 70, "trial": 69, "rt": 1484, "response": "Alpha"}, "80": {"stimulus": 36, "trial": 80, "rt": 1084, "response": "Beta"}, "52": {"stimulus": 68, "trial": 52, "rt": 1562, "response": "Alpha"}, "53": {"stimulus": 62, "trial": 53, "rt": 2418, "response": "Alpha"}, "24": {"stimulus": 25, "trial": 24, "rt": 1080, "response": "Alpha"}, "25": {"stimulus": 78, "trial": 25, "rt": 939, "response": "Alpha"}, "26": {"stimulus": 49, "trial": 26, "rt": 1298, "response": "Alpha"}, "27": {"stimulus": 47, "trial": 27, "rt": 2020, "response": "Beta"}, "20": {"stimulus": 9, "trial": 20, "rt": 1775, "response": "Beta"}, "21": {"stimulus": 13, "trial": 21, "rt": 1249, "response": "Alpha"}, "22": {"stimulus": 35, "trial": 22, "rt": 1347, "response": "Alpha"}, "23": {"stimulus": 44, "trial": 23, "rt": 769, "response": "Alpha"}, "46": {"stimulus": 73, "trial": 46, "rt": 1292, "response": "Beta"}, "47": {"stimulus": 80, "trial": 47, "rt": 1123, "response": "Alpha"}, "44": {"stimulus": 17, "trial": 44, "rt": 537, "response": "Alpha"}, "45": {"stimulus": 65, "trial": 45, "rt": 1105, "response": "Alpha"}, "28": {"stimulus": 2, "trial": 28, "rt": 1771, "response": "Beta"}, "29": {"stimulus": 24, "trial": 29, "rt": 680, "response": "Alpha"}, "40": {"stimulus": 42, "trial": 40, "rt": 788, "response": "Alpha"}, "41": {"stimulus": 51, "trial": 41, "rt": 527, "response": "Alpha"}, "1": {"stimulus": 55, "trial": 1, "rt": 1308, "response": "Beta"}, "0": {"stimulus": 61, "trial": 0, "rt": 1789, "response": "Alpha"}, "3": {"stimulus": 67, "trial": 3, "rt": 1454, "response": "Alpha"}, "2": {"stimulus": 52, "trial": 2, "rt": 824, "response": "Alpha"}, "5": {"stimulus": 37, "trial": 5, "rt": 1244, "response": "Beta"}, "4": {"stimulus": 46, "trial": 4, "rt": 1488, "response": "Alpha"}, "7": {"stimulus": 59, "trial": 7, "rt": 1144, "response": "Alpha"}, "6": {"stimulus": 10, "trial": 6, "rt": 1984, "response": "Beta"}, "9": {"stimulus": 72, "trial": 9, "rt": 1727, "response": "Beta"}, "8": {"stimulus": 30, "trial": 8, "rt": 1516, "response": "Alpha"}, "78": {"stimulus": 50, "trial": 78, "rt": 1695, "response": "Alpha"}, "51": {"stimulus": 71, "trial": 51, "rt": 658, "response": "Alpha"}, "39": {"stimulus": 11, "trial": 39, "rt": 1621, "response": "Beta"}, "65": {"stimulus": 43, "trial": 65, "rt": 1093, "response": "Alpha"}, "76": {"stimulus": 15, "trial": 76, "rt": 1209, "response": "Alpha"}, "75": {"stimulus": 0, "trial": 75, "rt": 1133, "response": "Beta"}, "38": {"stimulus": 66, "trial": 38, "rt": 2064, "response": "Alpha"}, "73": {"stimulus": 8, "trial": 73, "rt": 1312, "response": "Alpha"}, "72": {"stimulus": 76, "trial": 72, "rt": 1486, "response": "Alpha"}, "71": {"stimulus": 22, "trial": 71, "rt": 1580, "response": "Alpha"}, "70": {"stimulus": 16, "trial": 70, "rt": 881, "response": "Alpha"}, "59": {"stimulus": 32, "trial": 59, "rt": 1396, "response": "Alpha"}, "79": {"stimulus": 56, "trial": 79, "rt": 760, "response": "Alpha"}, "58": {"stimulus": 77, "trial": 58, "rt": 1166, "response": "Alpha"}, "11": {"stimulus": 12, "trial": 11, "rt": 2551, "response": "Alpha"}, "10": {"stimulus": 21, "trial": 10, "rt": 1490, "response": "Alpha"}, "13": {"stimulus": 75, "trial": 13, "rt": 1261, "response": "Alpha"}, "12": {"stimulus": 38, "trial": 12, "rt": 1252, "response": "Alpha"}, "15": {"stimulus": 34, "trial": 15, "rt": 1171, "response": "Alpha"}, "14": {"stimulus": 28, "trial": 14, "rt": 1331, "response": "Beta"}, "17": {"stimulus": 29, "trial": 17, "rt": 1777, "response": "Beta"}, "16": {"stimulus": 20, "trial": 16, "rt": 2446, "response": "Alpha"}, "19": {"stimulus": 33, "trial": 19, "rt": 1149, "response": "Alpha"}, "18": {"stimulus": 54, "trial": 18, "rt": 1141, "response": "Beta"}, "31": {"stimulus": 57, "trial": 31, "rt": 1418, "response": "Alpha"}, "30": {"stimulus": 41, "trial": 30, "rt": 616, "response": "Alpha"}, "37": {"stimulus": 3, "trial": 37, "rt": 2174, "response": "Beta"}, "36": {"stimulus": 6, "trial": 36, "rt": 738, "response": "Alpha"}, "35": {"stimulus": 23, "trial": 35, "rt": 65240, "response": "Alpha"}, "34": {"stimulus": 40, "trial": 34, "rt": 3294, "response": "Alpha"}, "33": {"stimulus": 5, "trial": 33, "rt": 1514, "response": "Alpha"}, "55": {"stimulus": 27, "trial": 55, "rt": 1304, "response": "Beta"}, "74": {"stimulus": 26, "trial": 74, "rt": 810, "response": "Alpha"}, "32": {"stimulus": 79, "trial": 32, "rt": 1443, "response": "Alpha"}, "57": {"stimulus": 58, "trial": 57, "rt": 1153, "response": "Alpha"}, "50": {"stimulus": 53, "trial": 50, "rt": 742, "response": "Alpha"}}}