{"generation": {"1": {"stimulus": 17, "trial": 1, "rt": 6973}, "0": {"stimulus": 8, "trial": 0, "rt": 15261}, "3": {"stimulus": 35, "trial": 3, "rt": 2592}, "2": {"stimulus": 26, "trial": 2, "rt": 3107}}, "info": {"finish": 1482182583630, "participant": 145, "exposed": true, "lab": false, "start": 1482181646343, "counterbalance": 4, "condition": "Bottom", "browser": {"platform": "Win32", "userAgent": "Mozilla/5.0 (Windows NT 10.0; WOW64; rv:50.0) Gecko/20100101 Firefox/50.0"}}, "experiment": {"Paradigm": "TACL", "Stimuli": "Size-Color Squares", "Experiment": "Generating-Categories"}, "observation": {"11": {"stimulus": 12, "trial": 11, "rt": 1332}, "10": {"stimulus": 30, "trial": 10, "rt": 374730}, "1": {"stimulus": 14, "trial": 1, "rt": 1292}, "0": {"stimulus": 32, "trial": 0, "rt": 1355}, "3": {"stimulus": 12, "trial": 3, "rt": 1558}, "2": {"stimulus": 30, "trial": 2, "rt": 36298}, "5": {"stimulus": 32, "trial": 5, "rt": 1184}, "4": {"stimulus": 12, "trial": 4, "rt": 1106}, "7": {"stimulus": 14, "trial": 7, "rt": 1239}, "6": {"stimulus": 30, "trial": 6, "rt": 1246}, "9": {"stimulus": 14, "trial": 9, "rt": 1349}, "8": {"stimulus": 32, "trial": 8, "rt": 1215}}, "generalization": {"56": {"stimulus": 69, "trial": 56, "rt": 723, "response": "Beta"}, "77": {"stimulus": 9, "trial": 77, "rt": 1251, "response": "Alpha"}, "54": {"stimulus": 26, "trial": 54, "rt": 1108, "response": "Beta"}, "42": {"stimulus": 10, "trial": 42, "rt": 514, "response": "Beta"}, "48": {"stimulus": 1, "trial": 48, "rt": 843, "response": "Alpha"}, "43": {"stimulus": 56, "trial": 43, "rt": 2074, "response": "Alpha"}, "60": {"stimulus": 23, "trial": 60, "rt": 147956, "response": "Alpha"}, "61": {"stimulus": 5, "trial": 61, "rt": 971, "response": "Alpha"}, "62": {"stimulus": 3, "trial": 62, "rt": 475, "response": "Alpha"}, "63": {"stimulus": 8, "trial": 63, "rt": 1035, "response": "Beta"}, "64": {"stimulus": 20, "trial": 64, "rt": 731, "response": "Alpha"}, "49": {"stimulus": 64, "trial": 49, "rt": 467, "response": "Alpha"}, "66": {"stimulus": 13, "trial": 66, "rt": 939, "response": "Alpha"}, "67": {"stimulus": 2, "trial": 67, "rt": 515, "response": "Alpha"}, "68": {"stimulus": 51, "trial": 68, "rt": 635, "response": "Alpha"}, "69": {"stimulus": 19, "trial": 69, "rt": 859, "response": "Alpha"}, "80": {"stimulus": 38, "trial": 80, "rt": 1043, "response": "Alpha"}, "52": {"stimulus": 11, "trial": 52, "rt": 942, "response": "Alpha"}, "53": {"stimulus": 4, "trial": 53, "rt": 1811, "response": "Alpha"}, "24": {"stimulus": 71, "trial": 24, "rt": 281, "response": "Alpha"}, "25": {"stimulus": 49, "trial": 25, "rt": 829, "response": "Beta"}, "26": {"stimulus": 34, "trial": 26, "rt": 1042, "response": "Beta"}, "27": {"stimulus": 41, "trial": 27, "rt": 947, "response": "Alpha"}, "20": {"stimulus": 12, "trial": 20, "rt": 420, "response": "Alpha"}, "21": {"stimulus": 62, "trial": 21, "rt": 394, "response": "Alpha"}, "22": {"stimulus": 63, "trial": 22, "rt": 1220, "response": "Beta"}, "23": {"stimulus": 36, "trial": 23, "rt": 928, "response": "Alpha"}, "46": {"stimulus": 29, "trial": 46, "rt": 1523, "response": "Alpha"}, "47": {"stimulus": 79, "trial": 47, "rt": 8506, "response": "Beta"}, "44": {"stimulus": 17, "trial": 44, "rt": 1147, "response": "Beta"}, "45": {"stimulus": 16, "trial": 45, "rt": 1899, "response": "Beta"}, "28": {"stimulus": 67, "trial": 28, "rt": 871, "response": "Alpha"}, "29": {"stimulus": 70, "trial": 29, "rt": 854, "response": "Beta"}, "40": {"stimulus": 73, "trial": 40, "rt": 1115, "response": "Alpha"}, "41": {"stimulus": 52, "trial": 41, "rt": 882, "response": "Beta"}, "1": {"stimulus": 14, "trial": 1, "rt": 1698, "response": "Alpha"}, "0": {"stimulus": 31, "trial": 0, "rt": 2736, "response": "Alpha"}, "3": {"stimulus": 55, "trial": 3, "rt": 1602, "response": "Alpha"}, "2": {"stimulus": 6, "trial": 2, "rt": 516, "response": "Alpha"}, "5": {"stimulus": 42, "trial": 5, "rt": 1330, "response": "Beta"}, "4": {"stimulus": 54, "trial": 4, "rt": 1456, "response": "Alpha"}, "7": {"stimulus": 59, "trial": 7, "rt": 771, "response": "Beta"}, "6": {"stimulus": 60, "trial": 6, "rt": 618, "response": "Beta"}, "9": {"stimulus": 32, "trial": 9, "rt": 826, "response": "Alpha"}, "8": {"stimulus": 44, "trial": 8, "rt": 912, "response": "Beta"}, "78": {"stimulus": 48, "trial": 78, "rt": 1091, "response": "Alpha"}, "51": {"stimulus": 24, "trial": 51, "rt": 876, "response": "Beta"}, "39": {"stimulus": 75, "trial": 39, "rt": 1187, "response": "Alpha"}, "65": {"stimulus": 78, "trial": 65, "rt": 875, "response": "Beta"}, "76": {"stimulus": 37, "trial": 76, "rt": 1122, "response": "Alpha"}, "75": {"stimulus": 25, "trial": 75, "rt": 883, "response": "Beta"}, "38": {"stimulus": 50, "trial": 38, "rt": 1363, "response": "Alpha"}, "73": {"stimulus": 33, "trial": 73, "rt": 875, "response": "Beta"}, "72": {"stimulus": 74, "trial": 72, "rt": 467, "response": "Alpha"}, "71": {"stimulus": 46, "trial": 71, "rt": 1490, "response": "Alpha"}, "70": {"stimulus": 39, "trial": 70, "rt": 1082, "response": "Alpha"}, "59": {"stimulus": 57, "trial": 59, "rt": 1322, "response": "Alpha"}, "79": {"stimulus": 0, "trial": 79, "rt": 902, "response": "Alpha"}, "58": {"stimulus": 77, "trial": 58, "rt": 899, "response": "Beta"}, "11": {"stimulus": 18, "trial": 11, "rt": 661, "response": "Alpha"}, "10": {"stimulus": 45, "trial": 10, "rt": 552, "response": "Alpha"}, "13": {"stimulus": 22, "trial": 13, "rt": 3835, "response": "Alpha"}, "12": {"stimulus": 72, "trial": 12, "rt": 658, "response": "Alpha"}, "15": {"stimulus": 80, "trial": 15, "rt": 10568, "response": "Beta"}, "14": {"stimulus": 21, "trial": 14, "rt": 1836, "response": "Alpha"}, "17": {"stimulus": 15, "trial": 17, "rt": 594, "response": "Alpha"}, "16": {"stimulus": 76, "trial": 16, "rt": 72460, "response": "Alpha"}, "19": {"stimulus": 40, "trial": 19, "rt": 604, "response": "Alpha"}, "18": {"stimulus": 68, "trial": 18, "rt": 900, "response": "Beta"}, "31": {"stimulus": 65, "trial": 31, "rt": 1221, "response": "Alpha"}, "30": {"stimulus": 58, "trial": 30, "rt": 1027, "response": "Alpha"}, "37": {"stimulus": 43, "trial": 37, "rt": 1040, "response": "Beta"}, "36": {"stimulus": 66, "trial": 36, "rt": 1995, "response": "Alpha"}, "35": {"stimulus": 28, "trial": 35, "rt": 916, "response": "Alpha"}, "34": {"stimulus": 61, "trial": 34, "rt": 585, "response": "Beta"}, "33": {"stimulus": 7, "trial": 33, "rt": 739, "response": "Beta"}, "55": {"stimulus": 35, "trial": 55, "rt": 722, "response": "Beta"}, "74": {"stimulus": 47, "trial": 74, "rt": 754, "response": "Alpha"}, "32": {"stimulus": 53, "trial": 32, "rt": 1343, "response": "Beta"}, "57": {"stimulus": 27, "trial": 57, "rt": 501, "response": "Alpha"}, "50": {"stimulus": 30, "trial": 50, "rt": 546, "response": "Alpha"}}}