{"generation": {"1": {"stimulus": 8, "trial": 1, "rt": 7508}, "0": {"stimulus": 1, "trial": 0, "rt": 17089}, "3": {"stimulus": 80, "trial": 3, "rt": 4218}, "2": {"stimulus": 72, "trial": 2, "rt": 6696}}, "info": {"participant": 146, "exposed": true, "lab": false, "start": 1482181663342, "counterbalance": 0, "condition": "Middle", "browser": {"platform": "Linux i686", "userAgent": "Mozilla/5.0 (X11; Linux i686) AppleWebKit/537.36 (KHTML, like Gecko) Chrome/55.0.2883.75 Safari/537.36"}}, "experiment": {"Paradigm": "TACL", "Stimuli": "Size-Color Squares", "Experiment": "Generating-Categories"}, "observation": {"11": {"stimulus": 50, "trial": 11, "rt": 1298}, "10": {"stimulus": 32, "trial": 10, "rt": 659}, "1": {"stimulus": 50, "trial": 1, "rt": 1402}, "0": {"stimulus": 48, "trial": 0, "rt": 2548}, "3": {"stimulus": 30, "trial": 3, "rt": 1099}, "2": {"stimulus": 32, "trial": 2, "rt": 1243}, "5": {"stimulus": 32, "trial": 5, "rt": 1179}, "4": {"stimulus": 48, "trial": 4, "rt": 961}, "7": {"stimulus": 30, "trial": 7, "rt": 996}, "6": {"stimulus": 50, "trial": 6, "rt": 1042}, "9": {"stimulus": 48, "trial": 9, "rt": 916}, "8": {"stimulus": 30, "trial": 8, "rt": 953}}, "generalization": {"56": {"stimulus": 24, "trial": 56, "rt": 738, "response": "Alpha"}, "77": {"stimulus": 38, "trial": 77, "rt": 529, "response": "Alpha"}, "54": {"stimulus": 33, "trial": 54, "rt": 539, "response": "Alpha"}, "42": {"stimulus": 80, "trial": 42, "rt": 969, "response": "Beta"}, "48": {"stimulus": 76, "trial": 48, "rt": 2058, "response": "Alpha"}, "43": {"stimulus": 15, "trial": 43, "rt": 834, "response": "Beta"}, "60": {"stimulus": 13, "trial": 60, "rt": 922, "response": "Beta"}, "61": {"stimulus": 60, "trial": 61, "rt": 626, "response": "Alpha"}, "62": {"stimulus": 42, "trial": 62, "rt": 524, "response": "Alpha"}, "63": {"stimulus": 51, "trial": 63, "rt": 636, "response": "Alpha"}, "64": {"stimulus": 10, "trial": 64, "rt": 985, "response": "Beta"}, "49": {"stimulus": 29, "trial": 49, "rt": 905, "response": "Alpha"}, "66": {"stimulus": 18, "trial": 66, "rt": 1587, "response": "Alpha"}, "67": {"stimulus": 56, "trial": 67, "rt": 778, "response": "Alpha"}, "68": {"stimulus": 9, "trial": 68, "rt": 1028, "response": "Beta"}, "69": {"stimulus": 57, "trial": 69, "rt": 570, "response": "Alpha"}, "80": {"stimulus": 8, "trial": 80, "rt": 1401, "response": "Beta"}, "52": {"stimulus": 34, "trial": 52, "rt": 611, "response": "Alpha"}, "53": {"stimulus": 1, "trial": 53, "rt": 1026, "response": "Beta"}, "24": {"stimulus": 65, "trial": 24, "rt": 947, "response": "Alpha"}, "25": {"stimulus": 74, "trial": 25, "rt": 1674, "response": "Alpha"}, "26": {"stimulus": 64, "trial": 26, "rt": 1108, "response": "Alpha"}, "27": {"stimulus": 54, "trial": 27, "rt": 586, "response": "Alpha"}, "20": {"stimulus": 45, "trial": 20, "rt": 1010, "response": "Alpha"}, "21": {"stimulus": 41, "trial": 21, "rt": 875, "response": "Alpha"}, "22": {"stimulus": 39, "trial": 22, "rt": 626, "response": "Alpha"}, "23": {"stimulus": 79, "trial": 23, "rt": 1195, "response": "Beta"}, "46": {"stimulus": 3, "trial": 46, "rt": 923, "response": "Beta"}, "47": {"stimulus": 32, "trial": 47, "rt": 707, "response": "Alpha"}, "44": {"stimulus": 71, "trial": 44, "rt": 1451, "response": "Alpha"}, "45": {"stimulus": 73, "trial": 45, "rt": 1570, "response": "Beta"}, "28": {"stimulus": 77, "trial": 28, "rt": 1411, "response": "Alpha"}, "29": {"stimulus": 16, "trial": 29, "rt": 1115, "response": "Beta"}, "40": {"stimulus": 50, "trial": 40, "rt": 554, "response": "Alpha"}, "41": {"stimulus": 14, "trial": 41, "rt": 1164, "response": "Beta"}, "1": {"stimulus": 62, "trial": 1, "rt": 721, "response": "Alpha"}, "0": {"stimulus": 59, "trial": 0, "rt": 1392, "response": "Alpha"}, "3": {"stimulus": 7, "trial": 3, "rt": 1124, "response": "Beta"}, "2": {"stimulus": 40, "trial": 2, "rt": 691, "response": "Alpha"}, "5": {"stimulus": 46, "trial": 5, "rt": 2119, "response": "Alpha"}, "4": {"stimulus": 47, "trial": 4, "rt": 1045, "response": "Alpha"}, "7": {"stimulus": 78, "trial": 7, "rt": 2562, "response": "Beta"}, "6": {"stimulus": 22, "trial": 6, "rt": 1547, "response": "Alpha"}, "9": {"stimulus": 49, "trial": 9, "rt": 916, "response": "Alpha"}, "8": {"stimulus": 67, "trial": 8, "rt": 1138, "response": "Alpha"}, "78": {"stimulus": 11, "trial": 78, "rt": 1036, "response": "Beta"}, "51": {"stimulus": 23, "trial": 51, "rt": 673, "response": "Alpha"}, "39": {"stimulus": 27, "trial": 39, "rt": 810, "response": "Alpha"}, "65": {"stimulus": 12, "trial": 65, "rt": 930, "response": "Beta"}, "76": {"stimulus": 35, "trial": 76, "rt": 627, "response": "Alpha"}, "75": {"stimulus": 66, "trial": 75, "rt": 660, "response": "Alpha"}, "38": {"stimulus": 72, "trial": 38, "rt": 1483, "response": "Beta"}, "73": {"stimulus": 55, "trial": 73, "rt": 760, "response": "Alpha"}, "72": {"stimulus": 20, "trial": 72, "rt": 769, "response": "Alpha"}, "71": {"stimulus": 6, "trial": 71, "rt": 2100, "response": "Alpha"}, "70": {"stimulus": 2, "trial": 70, "rt": 922, "response": "Beta"}, "59": {"stimulus": 52, "trial": 59, "rt": 533, "response": "Alpha"}, "79": {"stimulus": 4, "trial": 79, "rt": 1491, "response": "Alpha"}, "58": {"stimulus": 36, "trial": 58, "rt": 538, "response": "Alpha"}, "11": {"stimulus": 19, "trial": 11, "rt": 1161, "response": "Alpha"}, "10": {"stimulus": 68, "trial": 10, "rt": 794, "response": "Alpha"}, "13": {"stimulus": 43, "trial": 13, "rt": 2047, "response": "Alpha"}, "12": {"stimulus": 5, "trial": 12, "rt": 1091, "response": "Beta"}, "15": {"stimulus": 25, "trial": 15, "rt": 1315, "response": "Alpha"}, "14": {"stimulus": 70, "trial": 14, "rt": 1363, "response": "Alpha"}, "17": {"stimulus": 28, "trial": 17, "rt": 1251, "response": "Alpha"}, "16": {"stimulus": 17, "trial": 16, "rt": 947, "response": "Beta"}, "19": {"stimulus": 0, "trial": 19, "rt": 995, "response": "Beta"}, "18": {"stimulus": 30, "trial": 18, "rt": 730, "response": "Alpha"}, "31": {"stimulus": 26, "trial": 31, "rt": 1090, "response": "Alpha"}, "30": {"stimulus": 37, "trial": 30, "rt": 954, "response": "Alpha"}, "37": {"stimulus": 44, "trial": 37, "rt": 522, "response": "Alpha"}, "36": {"stimulus": 31, "trial": 36, "rt": 555, "response": "Alpha"}, "35": {"stimulus": 21, "trial": 35, "rt": 963, "response": "Alpha"}, "34": {"stimulus": 58, "trial": 34, "rt": 707, "response": "Alpha"}, "33": {"stimulus": 63, "trial": 33, "rt": 810, "response": "Alpha"}, "55": {"stimulus": 69, "trial": 55, "rt": 916, "response": "Alpha"}, "74": {"stimulus": 75, "trial": 74, "rt": 1099, "response": "Alpha"}, "32": {"stimulus": 48, "trial": 32, "rt": 731, "response": "Alpha"}, "57": {"stimulus": 61, "trial": 57, "rt": 659, "response": "Alpha"}, "50": {"stimulus": 53, "trial": 50, "rt": 573, "response": "Alpha"}}}3, "response": "Alpha"}}}