{"generation": {"1": {"stimulus": 63, "trial": 1, "rt": 15625}, "0": {"stimulus": 64, "trial": 0, "rt": 28165}, "3": {"stimulus": 80, "trial": 3, "rt": 7791}, "2": {"stimulus": 68, "trial": 2, "rt": 8509}}, "info": {"finish": 1482182017150, "participant": 147, "exposed": true, "lab": false, "start": 1482181668927, "counterbalance": 1, "condition": "Bottom", "browser": {"platform": "Linux x86_64", "userAgent": "Mozilla/5.0 (X11; Linux x86_64) AppleWebKit/537.36 (KHTML, like Gecko) Chrome/47.0.2526.106 Safari/537.36"}}, "experiment": {"Paradigm": "TACL", "Stimuli": "Size-Color Squares", "Experiment": "Generating-Categories"}, "observation": {"11": {"stimulus": 30, "trial": 11, "rt": 1427}, "10": {"stimulus": 12, "trial": 10, "rt": 1250}, "1": {"stimulus": 32, "trial": 1, "rt": 1854}, "0": {"stimulus": 30, "trial": 0, "rt": 3421}, "3": {"stimulus": 14, "trial": 3, "rt": 1389}, "2": {"stimulus": 12, "trial": 2, "rt": 1475}, "5": {"stimulus": 12, "trial": 5, "rt": 1817}, "4": {"stimulus": 32, "trial": 4, "rt": 1351}, "7": {"stimulus": 30, "trial": 7, "rt": 1279}, "6": {"stimulus": 14, "trial": 6, "rt": 1731}, "9": {"stimulus": 32, "trial": 9, "rt": 1495}, "8": {"stimulus": 14, "trial": 8, "rt": 2075}}, "generalization": {"56": {"stimulus": 67, "trial": 56, "rt": 1009, "response": "Beta"}, "77": {"stimulus": 1, "trial": 77, "rt": 772, "response": "Alpha"}, "54": {"stimulus": 13, "trial": 54, "rt": 635, "response": "Alpha"}, "42": {"stimulus": 65, "trial": 42, "rt": 813, "response": "Beta"}, "48": {"stimulus": 15, "trial": 48, "rt": 1225, "response": "Alpha"}, "43": {"stimulus": 25, "trial": 43, "rt": 1286, "response": "Alpha"}, "60": {"stimulus": 26, "trial": 60, "rt": 1278, "response": "Alpha"}, "61": {"stimulus": 64, "trial": 61, "rt": 1435, "response": "Beta"}, "62": {"stimulus": 43, "trial": 62, "rt": 1569, "response": "Alpha"}, "63": {"stimulus": 5, "trial": 63, "rt": 3667, "response": "Alpha"}, "64": {"stimulus": 53, "trial": 64, "rt": 3958, "response": "Beta"}, "49": {"stimulus": 79, "trial": 49, "rt": 1357, "response": "Beta"}, "66": {"stimulus": 47, "trial": 66, "rt": 3408, "response": "Beta"}, "67": {"stimulus": 73, "trial": 67, "rt": 744, "response": "Beta"}, "68": {"stimulus": 24, "trial": 68, "rt": 1248, "response": "Alpha"}, "69": {"stimulus": 80, "trial": 69, "rt": 1296, "response": "Beta"}, "80": {"stimulus": 16, "trial": 80, "rt": 759, "response": "Alpha"}, "52": {"stimulus": 4, "trial": 52, "rt": 728, "response": "Alpha"}, "53": {"stimulus": 22, "trial": 53, "rt": 719, "response": "Alpha"}, "24": {"stimulus": 61, "trial": 24, "rt": 1393, "response": "Beta"}, "25": {"stimulus": 36, "trial": 25, "rt": 1170, "response": "Alpha"}, "26": {"stimulus": 27, "trial": 26, "rt": 1492, "response": "Alpha"}, "27": {"stimulus": 49, "trial": 27, "rt": 2531, "response": "Beta"}, "20": {"stimulus": 44, "trial": 20, "rt": 2355, "response": "Alpha"}, "21": {"stimulus": 12, "trial": 21, "rt": 1126, "response": "Alpha"}, "22": {"stimulus": 30, "trial": 22, "rt": 747, "response": "Alpha"}, "23": {"stimulus": 3, "trial": 23, "rt": 746, "response": "Alpha"}, "46": {"stimulus": 45, "trial": 46, "rt": 4314, "response": "Beta"}, "47": {"stimulus": 50, "trial": 47, "rt": 1305, "response": "Beta"}, "44": {"stimulus": 78, "trial": 44, "rt": 1591, "response": "Beta"}, "45": {"stimulus": 33, "trial": 45, "rt": 1427, "response": "Alpha"}, "28": {"stimulus": 68, "trial": 28, "rt": 718, "response": "Beta"}, "29": {"stimulus": 9, "trial": 29, "rt": 1491, "response": "Alpha"}, "40": {"stimulus": 18, "trial": 40, "rt": 4322, "response": "Alpha"}, "41": {"stimulus": 76, "trial": 41, "rt": 9539, "response": "Beta"}, "1": {"stimulus": 14, "trial": 1, "rt": 2218, "response": "Alpha"}, "0": {"stimulus": 8, "trial": 0, "rt": 3628, "response": "Alpha"}, "3": {"stimulus": 7, "trial": 3, "rt": 922, "response": "Alpha"}, "2": {"stimulus": 34, "trial": 2, "rt": 1427, "response": "Alpha"}, "5": {"stimulus": 0, "trial": 5, "rt": 1821, "response": "Alpha"}, "4": {"stimulus": 72, "trial": 4, "rt": 1553, "response": "Beta"}, "7": {"stimulus": 21, "trial": 7, "rt": 1061, "response": "Alpha"}, "6": {"stimulus": 2, "trial": 6, "rt": 1574, "response": "Alpha"}, "9": {"stimulus": 55, "trial": 9, "rt": 1053, "response": "Beta"}, "8": {"stimulus": 40, "trial": 8, "rt": 1437, "response": "Alpha"}, "78": {"stimulus": 19, "trial": 78, "rt": 746, "response": "Alpha"}, "51": {"stimulus": 17, "trial": 51, "rt": 945, "response": "Alpha"}, "39": {"stimulus": 23, "trial": 39, "rt": 1816, "response": "Alpha"}, "65": {"stimulus": 20, "trial": 65, "rt": 1134, "response": "Alpha"}, "76": {"stimulus": 42, "trial": 76, "rt": 1593, "response": "Alpha"}, "75": {"stimulus": 54, "trial": 75, "rt": 738, "response": "Beta"}, "38": {"stimulus": 57, "trial": 38, "rt": 1328, "response": "Beta"}, "73": {"stimulus": 10, "trial": 73, "rt": 1489, "response": "Alpha"}, "72": {"stimulus": 59, "trial": 72, "rt": 1623, "response": "Beta"}, "71": {"stimulus": 77, "trial": 71, "rt": 1956, "response": "Beta"}, "70": {"stimulus": 29, "trial": 70, "rt": 3941, "response": "Alpha"}, "59": {"stimulus": 37, "trial": 59, "rt": 1809, "response": "Alpha"}, "79": {"stimulus": 11, "trial": 79, "rt": 797, "response": "Alpha"}, "58": {"stimulus": 75, "trial": 58, "rt": 1224, "response": "Beta"}, "11": {"stimulus": 39, "trial": 11, "rt": 999, "response": "Beta"}, "10": {"stimulus": 62, "trial": 10, "rt": 1701, "response": "Beta"}, "13": {"stimulus": 56, "trial": 13, "rt": 1187, "response": "Beta"}, "12": {"stimulus": 71, "trial": 12, "rt": 1164, "response": "Beta"}, "15": {"stimulus": 66, "trial": 15, "rt": 1100, "response": "Beta"}, "14": {"stimulus": 69, "trial": 14, "rt": 1194, "response": "Beta"}, "17": {"stimulus": 46, "trial": 17, "rt": 3358, "response": "Beta"}, "16": {"stimulus": 6, "trial": 16, "rt": 993, "response": "Alpha"}, "19": {"stimulus": 74, "trial": 19, "rt": 1599, "response": "Beta"}, "18": {"stimulus": 31, "trial": 18, "rt": 991, "response": "Alpha"}, "31": {"stimulus": 60, "trial": 31, "rt": 828, "response": "Beta"}, "30": {"stimulus": 58, "trial": 30, "rt": 1179, "response": "Beta"}, "37": {"stimulus": 32, "trial": 37, "rt": 1537, "response": "Alpha"}, "36": {"stimulus": 35, "trial": 36, "rt": 1855, "response": "Alpha"}, "35": {"stimulus": 63, "trial": 35, "rt": 713, "response": "Beta"}, "34": {"stimulus": 51, "trial": 34, "rt": 1235, "response": "Beta"}, "33": {"stimulus": 38, "trial": 33, "rt": 1061, "response": "Alpha"}, "55": {"stimulus": 48, "trial": 55, "rt": 3021, "response": "Beta"}, "74": {"stimulus": 70, "trial": 74, "rt": 1248, "response": "Beta"}, "32": {"stimulus": 28, "trial": 32, "rt": 1352, "response": "Alpha"}, "57": {"stimulus": 41, "trial": 57, "rt": 1879, "response": "Alpha"}, "50": {"stimulus": 52, "trial": 50, "rt": 1529, "response": "Beta"}}}