{"generation": {"1": {"stimulus": 9, "trial": 1, "rt": 10194}, "0": {"stimulus": 0, "trial": 0, "rt": 22915}, "3": {"stimulus": 27, "trial": 3, "rt": 8002}, "2": {"stimulus": 1, "trial": 2, "rt": 6792}}, "info": {"finish": 1482182150964, "participant": 149, "exposed": true, "lab": false, "start": 1482181700875, "counterbalance": 5, "condition": "Bottom", "browser": {"platform": "Win32", "userAgent": "Mozilla/5.0 (Windows NT 10.0; WOW64) AppleWebKit/537.36 (KHTML, like Gecko) Chrome/54.0.2840.99 Safari/537.36"}}, "experiment": {"Paradigm": "TACL", "Stimuli": "Size-Color Squares", "Experiment": "Generating-Categories"}, "observation": {"11": {"stimulus": 32, "trial": 11, "rt": 1331}, "10": {"stimulus": 14, "trial": 10, "rt": 1050}, "1": {"stimulus": 30, "trial": 1, "rt": 1883}, "0": {"stimulus": 14, "trial": 0, "rt": 2937}, "3": {"stimulus": 32, "trial": 3, "rt": 1035}, "2": {"stimulus": 12, "trial": 2, "rt": 1290}, "5": {"stimulus": 12, "trial": 5, "rt": 1331}, "4": {"stimulus": 14, "trial": 4, "rt": 1163}, "7": {"stimulus": 32, "trial": 7, "rt": 1107}, "6": {"stimulus": 30, "trial": 6, "rt": 1251}, "9": {"stimulus": 30, "trial": 9, "rt": 1012}, "8": {"stimulus": 12, "trial": 8, "rt": 1002}}, "generalization": {"56": {"stimulus": 32, "trial": 56, "rt": 1033, "response": "Alpha"}, "77": {"stimulus": 70, "trial": 77, "rt": 761, "response": "Alpha"}, "54": {"stimulus": 38, "trial": 54, "rt": 1187, "response": "Beta"}, "42": {"stimulus": 8, "trial": 42, "rt": 1018, "response": "Alpha"}, "48": {"stimulus": 19, "trial": 48, "rt": 1131, "response": "Beta"}, "43": {"stimulus": 15, "trial": 43, "rt": 514, "response": "Alpha"}, "60": {"stimulus": 9, "trial": 60, "rt": 1065, "response": "Beta"}, "61": {"stimulus": 67, "trial": 61, "rt": 938, "response": "Alpha"}, "62": {"stimulus": 39, "trial": 62, "rt": 522, "response": "Alpha"}, "63": {"stimulus": 57, "trial": 63, "rt": 827, "response": "Alpha"}, "64": {"stimulus": 76, "trial": 64, "rt": 1202, "response": "Alpha"}, "49": {"stimulus": 55, "trial": 49, "rt": 684, "response": "Beta"}, "66": {"stimulus": 75, "trial": 66, "rt": 1978, "response": "Alpha"}, "67": {"stimulus": 51, "trial": 67, "rt": 1171, "response": "Alpha"}, "68": {"stimulus": 77, "trial": 68, "rt": 1291, "response": "Alpha"}, "69": {"stimulus": 66, "trial": 69, "rt": 723, "response": "Alpha"}, "80": {"stimulus": 12, "trial": 80, "rt": 1139, "response": "Beta"}, "52": {"stimulus": 5, "trial": 52, "rt": 625, "response": "Alpha"}, "53": {"stimulus": 13, "trial": 53, "rt": 2515, "response": "Alpha"}, "24": {"stimulus": 18, "trial": 24, "rt": 1058, "response": "Beta"}, "25": {"stimulus": 63, "trial": 25, "rt": 1690, "response": "Beta"}, "26": {"stimulus": 68, "trial": 26, "rt": 978, "response": "Alpha"}, "27": {"stimulus": 40, "trial": 27, "rt": 777, "response": "Alpha"}, "20": {"stimulus": 58, "trial": 20, "rt": 1418, "response": "Alpha"}, "21": {"stimulus": 65, "trial": 21, "rt": 996, "response": "Alpha"}, "22": {"stimulus": 42, "trial": 22, "rt": 483, "response": "Alpha"}, "23": {"stimulus": 56, "trial": 23, "rt": 730, "response": "Alpha"}, "46": {"stimulus": 71, "trial": 46, "rt": 403, "response": "Alpha"}, "47": {"stimulus": 22, "trial": 47, "rt": 1642, "response": "Alpha"}, "44": {"stimulus": 34, "trial": 44, "rt": 436, "response": "Alpha"}, "45": {"stimulus": 14, "trial": 45, "rt": 426, "response": "Alpha"}, "28": {"stimulus": 69, "trial": 28, "rt": 659, "response": "Alpha"}, "29": {"stimulus": 17, "trial": 29, "rt": 674, "response": "Alpha"}, "40": {"stimulus": 10, "trial": 40, "rt": 979, "response": "Beta"}, "41": {"stimulus": 2, "trial": 41, "rt": 652, "response": "Beta"}, "1": {"stimulus": 16, "trial": 1, "rt": 707, "response": "Alpha"}, "0": {"stimulus": 33, "trial": 0, "rt": 3280, "response": "Alpha"}, "3": {"stimulus": 41, "trial": 3, "rt": 738, "response": "Alpha"}, "2": {"stimulus": 26, "trial": 2, "rt": 555, "response": "Alpha"}, "5": {"stimulus": 54, "trial": 5, "rt": 2067, "response": "Beta"}, "4": {"stimulus": 72, "trial": 4, "rt": 1739, "response": "Alpha"}, "7": {"stimulus": 73, "trial": 7, "rt": 1451, "response": "Alpha"}, "6": {"stimulus": 74, "trial": 6, "rt": 892, "response": "Alpha"}, "9": {"stimulus": 31, "trial": 9, "rt": 818, "response": "Alpha"}, "8": {"stimulus": 64, "trial": 8, "rt": 1418, "response": "Alpha"}, "78": {"stimulus": 49, "trial": 78, "rt": 842, "response": "Alpha"}, "51": {"stimulus": 80, "trial": 51, "rt": 546, "response": "Alpha"}, "39": {"stimulus": 44, "trial": 39, "rt": 1130, "response": "Alpha"}, "65": {"stimulus": 52, "trial": 65, "rt": 1027, "response": "Alpha"}, "76": {"stimulus": 59, "trial": 76, "rt": 851, "response": "Alpha"}, "75": {"stimulus": 25, "trial": 75, "rt": 883, "response": "Alpha"}, "38": {"stimulus": 60, "trial": 38, "rt": 706, "response": "Alpha"}, "73": {"stimulus": 47, "trial": 73, "rt": 809, "response": "Beta"}, "72": {"stimulus": 27, "trial": 72, "rt": 627, "response": "Beta"}, "71": {"stimulus": 28, "trial": 71, "rt": 915, "response": "Beta"}, "70": {"stimulus": 78, "trial": 70, "rt": 531, "response": "Alpha"}, "59": {"stimulus": 3, "trial": 59, "rt": 876, "response": "Alpha"}, "79": {"stimulus": 20, "trial": 79, "rt": 1490, "response": "Beta"}, "58": {"stimulus": 24, "trial": 58, "rt": 932, "response": "Alpha"}, "11": {"stimulus": 4, "trial": 11, "rt": 1258, "response": "Alpha"}, "10": {"stimulus": 53, "trial": 10, "rt": 691, "response": "Alpha"}, "13": {"stimulus": 48, "trial": 13, "rt": 551, "response": "Alpha"}, "12": {"stimulus": 21, "trial": 12, "rt": 420, "response": "Alpha"}, "15": {"stimulus": 29, "trial": 15, "rt": 947, "response": "Beta"}, "14": {"stimulus": 61, "trial": 14, "rt": 865, "response": "Alpha"}, "17": {"stimulus": 6, "trial": 17, "rt": 811, "response": "Alpha"}, "16": {"stimulus": 0, "trial": 16, "rt": 824, "response": "Beta"}, "19": {"stimulus": 79, "trial": 19, "rt": 610, "response": "Alpha"}, "18": {"stimulus": 30, "trial": 18, "rt": 987, "response": "Alpha"}, "31": {"stimulus": 62, "trial": 31, "rt": 611, "response": "Alpha"}, "30": {"stimulus": 50, "trial": 30, "rt": 610, "response": "Alpha"}, "37": {"stimulus": 46, "trial": 37, "rt": 1065, "response": "Beta"}, "36": {"stimulus": 7, "trial": 36, "rt": 739, "response": "Alpha"}, "35": {"stimulus": 43, "trial": 35, "rt": 554, "response": "Alpha"}, "34": {"stimulus": 35, "trial": 34, "rt": 1060, "response": "Alpha"}, "33": {"stimulus": 36, "trial": 33, "rt": 739, "response": "Beta"}, "55": {"stimulus": 45, "trial": 55, "rt": 803, "response": "Beta"}, "74": {"stimulus": 37, "trial": 74, "rt": 476, "response": "Beta"}, "32": {"stimulus": 1, "trial": 32, "rt": 923, "response": "Beta"}, "57": {"stimulus": 11, "trial": 57, "rt": 1282, "response": "Beta"}, "50": {"stimulus": 23, "trial": 50, "rt": 1499, "response": "Alpha"}}}