{"generation": {"1": {"stimulus": 7, "trial": 1, "rt": 9714}, "0": {"stimulus": 8, "trial": 0, "rt": 14719}, "3": {"stimulus": 16, "trial": 3, "rt": 9018}, "2": {"stimulus": 17, "trial": 2, "rt": 16002}}, "info": {"finish": 1482174640250, "participant": 15, "exposed": true, "lab": false, "start": 1482174403164, "counterbalance": 6, "condition": "Middle", "browser": {"platform": "Win32", "userAgent": "Mozilla/5.0 (Windows NT 6.1; WOW64) AppleWebKit/537.36 (KHTML, like Gecko) Chrome/55.0.2883.87 Safari/537.36"}}, "experiment": {"Paradigm": "TACL", "Stimuli": "Size-Color Squares", "Experiment": "Generating-Categories"}, "observation": {"11": {"stimulus": 32, "trial": 11, "rt": 1497}, "10": {"stimulus": 50, "trial": 10, "rt": 2181}, "1": {"stimulus": 48, "trial": 1, "rt": 2081}, "0": {"stimulus": 30, "trial": 0, "rt": 3826}, "3": {"stimulus": 32, "trial": 3, "rt": 1722}, "2": {"stimulus": 50, "trial": 2, "rt": 1761}, "5": {"stimulus": 48, "trial": 5, "rt": 1517}, "4": {"stimulus": 50, "trial": 4, "rt": 1481}, "7": {"stimulus": 32, "trial": 7, "rt": 1237}, "6": {"stimulus": 30, "trial": 6, "rt": 1269}, "9": {"stimulus": 30, "trial": 9, "rt": 1563}, "8": {"stimulus": 48, "trial": 8, "rt": 1745}}, "generalization": {"56": {"stimulus": 57, "trial": 56, "rt": 1969, "response": "Alpha"}, "77": {"stimulus": 15, "trial": 77, "rt": 1387, "response": "Beta"}, "54": {"stimulus": 76, "trial": 54, "rt": 878, "response": "Alpha"}, "42": {"stimulus": 36, "trial": 42, "rt": 913, "response": "Alpha"}, "48": {"stimulus": 30, "trial": 48, "rt": 728, "response": "Alpha"}, "43": {"stimulus": 70, "trial": 43, "rt": 893, "response": "Beta"}, "60": {"stimulus": 16, "trial": 60, "rt": 677, "response": "Beta"}, "61": {"stimulus": 14, "trial": 61, "rt": 1747, "response": "Beta"}, "62": {"stimulus": 67, "trial": 62, "rt": 929, "response": "Alpha"}, "63": {"stimulus": 55, "trial": 63, "rt": 691, "response": "Alpha"}, "64": {"stimulus": 42, "trial": 64, "rt": 1291, "response": "Beta"}, "49": {"stimulus": 73, "trial": 49, "rt": 695, "response": "Alpha"}, "66": {"stimulus": 78, "trial": 66, "rt": 912, "response": "Beta"}, "67": {"stimulus": 51, "trial": 67, "rt": 629, "response": "Beta"}, "68": {"stimulus": 50, "trial": 68, "rt": 1761, "response": "Beta"}, "69": {"stimulus": 28, "trial": 69, "rt": 853, "response": "Alpha"}, "80": {"stimulus": 61, "trial": 80, "rt": 592, "response": "Beta"}, "52": {"stimulus": 44, "trial": 52, "rt": 786, "response": "Beta"}, "53": {"stimulus": 27, "trial": 53, "rt": 1327, "response": "Alpha"}, "24": {"stimulus": 62, "trial": 24, "rt": 1133, "response": "Beta"}, "25": {"stimulus": 79, "trial": 25, "rt": 596, "response": "Beta"}, "26": {"stimulus": 32, "trial": 26, "rt": 1273, "response": "Alpha"}, "27": {"stimulus": 45, "trial": 27, "rt": 588, "response": "Alpha"}, "20": {"stimulus": 13, "trial": 20, "rt": 665, "response": "Alpha"}, "21": {"stimulus": 9, "trial": 21, "rt": 584, "response": "Alpha"}, "22": {"stimulus": 60, "trial": 22, "rt": 1032, "response": "Alpha"}, "23": {"stimulus": 66, "trial": 23, "rt": 711, "response": "Alpha"}, "46": {"stimulus": 19, "trial": 46, "rt": 844, "response": "Alpha"}, "47": {"stimulus": 21, "trial": 47, "rt": 683, "response": "Alpha"}, "44": {"stimulus": 33, "trial": 44, "rt": 799, "response": "Beta"}, "45": {"stimulus": 75, "trial": 45, "rt": 962, "response": "Alpha"}, "28": {"stimulus": 56, "trial": 28, "rt": 585, "response": "Alpha"}, "29": {"stimulus": 40, "trial": 29, "rt": 618, "response": "Alpha"}, "40": {"stimulus": 1, "trial": 40, "rt": 641, "response": "Alpha"}, "41": {"stimulus": 71, "trial": 41, "rt": 925, "response": "Beta"}, "1": {"stimulus": 53, "trial": 1, "rt": 901, "response": "Beta"}, "0": {"stimulus": 20, "trial": 0, "rt": 2404, "response": "Alpha"}, "3": {"stimulus": 64, "trial": 3, "rt": 955, "response": "Alpha"}, "2": {"stimulus": 63, "trial": 2, "rt": 1343, "response": "Alpha"}, "5": {"stimulus": 49, "trial": 5, "rt": 933, "response": "Alpha"}, "4": {"stimulus": 54, "trial": 4, "rt": 875, "response": "Alpha"}, "7": {"stimulus": 68, "trial": 7, "rt": 984, "response": "Alpha"}, "6": {"stimulus": 72, "trial": 6, "rt": 939, "response": "Alpha"}, "9": {"stimulus": 48, "trial": 9, "rt": 1232, "response": "Alpha"}, "8": {"stimulus": 35, "trial": 8, "rt": 909, "response": "Beta"}, "78": {"stimulus": 2, "trial": 78, "rt": 1073, "response": "Alpha"}, "51": {"stimulus": 43, "trial": 51, "rt": 1003, "response": "Beta"}, "39": {"stimulus": 31, "trial": 39, "rt": 737, "response": "Alpha"}, "65": {"stimulus": 46, "trial": 65, "rt": 896, "response": "Alpha"}, "76": {"stimulus": 18, "trial": 76, "rt": 678, "response": "Alpha"}, "75": {"stimulus": 37, "trial": 75, "rt": 970, "response": "Alpha"}, "38": {"stimulus": 29, "trial": 38, "rt": 912, "response": "Alpha"}, "73": {"stimulus": 12, "trial": 73, "rt": 644, "response": "Alpha"}, "72": {"stimulus": 4, "trial": 72, "rt": 810, "response": "Alpha"}, "71": {"stimulus": 58, "trial": 71, "rt": 656, "response": "Alpha"}, "70": {"stimulus": 11, "trial": 70, "rt": 523, "response": "Alpha"}, "59": {"stimulus": 7, "trial": 59, "rt": 1158, "response": "Beta"}, "79": {"stimulus": 59, "trial": 79, "rt": 1667, "response": "Beta"}, "58": {"stimulus": 3, "trial": 58, "rt": 558, "response": "Alpha"}, "11": {"stimulus": 17, "trial": 11, "rt": 739, "response": "Beta"}, "10": {"stimulus": 34, "trial": 10, "rt": 1002, "response": "Beta"}, "13": {"stimulus": 25, "trial": 13, "rt": 666, "response": "Beta"}, "12": {"stimulus": 26, "trial": 12, "rt": 702, "response": "Beta"}, "15": {"stimulus": 47, "trial": 15, "rt": 778, "response": "Alpha"}, "14": {"stimulus": 5, "trial": 14, "rt": 1421, "response": "Alpha"}, "17": {"stimulus": 65, "trial": 17, "rt": 708, "response": "Alpha"}, "16": {"stimulus": 69, "trial": 16, "rt": 1240, "response": "Alpha"}, "19": {"stimulus": 10, "trial": 19, "rt": 617, "response": "Alpha"}, "18": {"stimulus": 0, "trial": 18, "rt": 661, "response": "Alpha"}, "31": {"stimulus": 52, "trial": 31, "rt": 1016, "response": "Beta"}, "30": {"stimulus": 39, "trial": 30, "rt": 601, "response": "Alpha"}, "37": {"stimulus": 24, "trial": 37, "rt": 1003, "response": "Beta"}, "36": {"stimulus": 74, "trial": 36, "rt": 545, "response": "Alpha"}, "35": {"stimulus": 77, "trial": 35, "rt": 1319, "response": "Alpha"}, "34": {"stimulus": 23, "trial": 34, "rt": 1208, "response": "Alpha"}, "33": {"stimulus": 6, "trial": 33, "rt": 1793, "response": "Beta"}, "55": {"stimulus": 8, "trial": 55, "rt": 1026, "response": "Beta"}, "74": {"stimulus": 80, "trial": 74, "rt": 1021, "response": "Beta"}, "32": {"stimulus": 22, "trial": 32, "rt": 1071, "response": "Alpha"}, "57": {"stimulus": 38, "trial": 57, "rt": 678, "response": "Alpha"}, "50": {"stimulus": 41, "trial": 50, "rt": 1055, "response": "Alpha"}}}