{"generation": {"1": {"stimulus": 71, "trial": 1, "rt": 6699}, "0": {"stimulus": 80, "trial": 0, "rt": 25554}, "3": {"stimulus": 8, "trial": 3, "rt": 4435}, "2": {"stimulus": 61, "trial": 2, "rt": 7083}}, "info": {"finish": 1482181971237, "participant": 150, "exposed": true, "lab": false, "start": 1482181712032, "counterbalance": 3, "condition": "Middle", "browser": {"platform": "Win32", "userAgent": "Mozilla/5.0 (Windows NT 6.1; WOW64) AppleWebKit/537.36 (KHTML, like Gecko) Chrome/55.0.2883.87 Safari/537.36"}}, "experiment": {"Paradigm": "TACL", "Stimuli": "Size-Color Squares", "Experiment": "Generating-Categories"}, "observation": {"11": {"stimulus": 32, "trial": 11, "rt": 703}, "10": {"stimulus": 48, "trial": 10, "rt": 764}, "1": {"stimulus": 48, "trial": 1, "rt": 1253}, "0": {"stimulus": 50, "trial": 0, "rt": 2216}, "3": {"stimulus": 30, "trial": 3, "rt": 1141}, "2": {"stimulus": 32, "trial": 2, "rt": 875}, "5": {"stimulus": 48, "trial": 5, "rt": 820}, "4": {"stimulus": 32, "trial": 4, "rt": 924}, "7": {"stimulus": 50, "trial": 7, "rt": 812}, "6": {"stimulus": 30, "trial": 6, "rt": 763}, "9": {"stimulus": 50, "trial": 9, "rt": 683}, "8": {"stimulus": 30, "trial": 8, "rt": 691}}, "generalization": {"56": {"stimulus": 12, "trial": 56, "rt": 768, "response": "Beta"}, "77": {"stimulus": 66, "trial": 77, "rt": 1539, "response": "Alpha"}, "54": {"stimulus": 5, "trial": 54, "rt": 1139, "response": "Beta"}, "42": {"stimulus": 55, "trial": 42, "rt": 1132, "response": "Alpha"}, "48": {"stimulus": 6, "trial": 48, "rt": 1163, "response": "Beta"}, "43": {"stimulus": 39, "trial": 43, "rt": 740, "response": "Alpha"}, "60": {"stimulus": 8, "trial": 60, "rt": 796, "response": "Beta"}, "61": {"stimulus": 48, "trial": 61, "rt": 1404, "response": "Alpha"}, "62": {"stimulus": 68, "trial": 62, "rt": 2067, "response": "Beta"}, "63": {"stimulus": 27, "trial": 63, "rt": 1115, "response": "Alpha"}, "64": {"stimulus": 2, "trial": 64, "rt": 812, "response": "Beta"}, "49": {"stimulus": 56, "trial": 49, "rt": 2988, "response": "Beta"}, "66": {"stimulus": 25, "trial": 66, "rt": 751, "response": "Beta"}, "67": {"stimulus": 35, "trial": 67, "rt": 489, "response": "Beta"}, "68": {"stimulus": 36, "trial": 68, "rt": 911, "response": "Alpha"}, "69": {"stimulus": 77, "trial": 69, "rt": 809, "response": "Beta"}, "80": {"stimulus": 19, "trial": 80, "rt": 2141, "response": "Alpha"}, "52": {"stimulus": 50, "trial": 52, "rt": 524, "response": "Beta"}, "53": {"stimulus": 23, "trial": 53, "rt": 546, "response": "Beta"}, "24": {"stimulus": 76, "trial": 24, "rt": 964, "response": "Beta"}, "25": {"stimulus": 74, "trial": 25, "rt": 412, "response": "Beta"}, "26": {"stimulus": 47, "trial": 26, "rt": 1947, "response": "Alpha"}, "27": {"stimulus": 21, "trial": 27, "rt": 2318, "response": "Alpha"}, "20": {"stimulus": 69, "trial": 20, "rt": 507, "response": "Alpha"}, "21": {"stimulus": 1, "trial": 21, "rt": 1131, "response": "Beta"}, "22": {"stimulus": 4, "trial": 22, "rt": 548, "response": "Beta"}, "23": {"stimulus": 13, "trial": 23, "rt": 510, "response": "Beta"}, "46": {"stimulus": 34, "trial": 46, "rt": 612, "response": "Alpha"}, "47": {"stimulus": 63, "trial": 47, "rt": 1739, "response": "Beta"}, "44": {"stimulus": 60, "trial": 44, "rt": 780, "response": "Alpha"}, "45": {"stimulus": 18, "trial": 45, "rt": 733, "response": "Alpha"}, "28": {"stimulus": 73, "trial": 28, "rt": 851, "response": "Beta"}, "29": {"stimulus": 16, "trial": 29, "rt": 2532, "response": "Alpha"}, "40": {"stimulus": 44, "trial": 40, "rt": 1610, "response": "Alpha"}, "41": {"stimulus": 67, "trial": 41, "rt": 1180, "response": "Beta"}, "1": {"stimulus": 46, "trial": 1, "rt": 2003, "response": "Alpha"}, "0": {"stimulus": 3, "trial": 0, "rt": 3666, "response": "Beta"}, "3": {"stimulus": 20, "trial": 3, "rt": 1143, "response": "Alpha"}, "2": {"stimulus": 29, "trial": 2, "rt": 943, "response": "Alpha"}, "5": {"stimulus": 72, "trial": 5, "rt": 1787, "response": "Beta"}, "4": {"stimulus": 61, "trial": 4, "rt": 1083, "response": "Beta"}, "7": {"stimulus": 78, "trial": 7, "rt": 660, "response": "Beta"}, "6": {"stimulus": 62, "trial": 6, "rt": 1133, "response": "Alpha"}, "9": {"stimulus": 59, "trial": 9, "rt": 1012, "response": "Alpha"}, "8": {"stimulus": 70, "trial": 8, "rt": 1092, "response": "Beta"}, "78": {"stimulus": 0, "trial": 78, "rt": 971, "response": "Beta"}, "51": {"stimulus": 24, "trial": 51, "rt": 852, "response": "Beta"}, "39": {"stimulus": 33, "trial": 39, "rt": 932, "response": "Alpha"}, "65": {"stimulus": 71, "trial": 65, "rt": 660, "response": "Beta"}, "76": {"stimulus": 79, "trial": 76, "rt": 795, "response": "Beta"}, "75": {"stimulus": 53, "trial": 75, "rt": 884, "response": "Beta"}, "38": {"stimulus": 15, "trial": 38, "rt": 740, "response": "Beta"}, "73": {"stimulus": 43, "trial": 73, "rt": 460, "response": "Alpha"}, "72": {"stimulus": 31, "trial": 72, "rt": 563, "response": "Alpha"}, "71": {"stimulus": 64, "trial": 71, "rt": 1268, "response": "Alpha"}, "70": {"stimulus": 7, "trial": 70, "rt": 1107, "response": "Beta"}, "59": {"stimulus": 41, "trial": 59, "rt": 482, "response": "Alpha"}, "79": {"stimulus": 40, "trial": 79, "rt": 1180, "response": "Beta"}, "58": {"stimulus": 32, "trial": 58, "rt": 932, "response": "Alpha"}, "11": {"stimulus": 54, "trial": 11, "rt": 979, "response": "Alpha"}, "10": {"stimulus": 30, "trial": 10, "rt": 660, "response": "Alpha"}, "13": {"stimulus": 22, "trial": 13, "rt": 531, "response": "Alpha"}, "12": {"stimulus": 28, "trial": 12, "rt": 987, "response": "Alpha"}, "15": {"stimulus": 26, "trial": 15, "rt": 599, "response": "Alpha"}, "14": {"stimulus": 58, "trial": 14, "rt": 651, "response": "Alpha"}, "17": {"stimulus": 57, "trial": 17, "rt": 596, "response": "Alpha"}, "16": {"stimulus": 51, "trial": 16, "rt": 481, "response": "Alpha"}, "19": {"stimulus": 45, "trial": 19, "rt": 1957, "response": "Beta"}, "18": {"stimulus": 14, "trial": 18, "rt": 971, "response": "Beta"}, "31": {"stimulus": 38, "trial": 31, "rt": 596, "response": "Alpha"}, "30": {"stimulus": 37, "trial": 30, "rt": 4579, "response": "Alpha"}, "37": {"stimulus": 11, "trial": 37, "rt": 6988, "response": "Beta"}, "36": {"stimulus": 42, "trial": 36, "rt": 1270, "response": "Alpha"}, "35": {"stimulus": 10, "trial": 35, "rt": 2297, "response": "Beta"}, "34": {"stimulus": 52, "trial": 34, "rt": 1316, "response": "Alpha"}, "33": {"stimulus": 17, "trial": 33, "rt": 852, "response": "Beta"}, "55": {"stimulus": 49, "trial": 55, "rt": 657, "response": "Beta"}, "74": {"stimulus": 80, "trial": 74, "rt": 644, "response": "Beta"}, "32": {"stimulus": 9, "trial": 32, "rt": 683, "response": "Alpha"}, "57": {"stimulus": 65, "trial": 57, "rt": 1179, "response": "Alpha"}, "50": {"stimulus": 75, "trial": 50, "rt": 852, "response": "Beta"}}}