{"generation": {"1": {"stimulus": 1, "trial": 1, "rt": 8693}, "0": {"stimulus": 0, "trial": 0, "rt": 38766}, "3": {"stimulus": 20, "trial": 3, "rt": 6945}, "2": {"stimulus": 10, "trial": 2, "rt": 4814}}, "info": {"finish": 1482182047822, "participant": 151, "exposed": true, "lab": false, "start": 1482181737117, "counterbalance": 4, "condition": "Middle", "browser": {"platform": "Win32", "userAgent": "Mozilla/5.0 (Windows NT 10.0; WOW64) AppleWebKit/537.36 (KHTML, like Gecko) Chrome/55.0.2883.87 Safari/537.36"}}, "experiment": {"Paradigm": "TACL", "Stimuli": "Size-Color Squares", "Experiment": "Generating-Categories"}, "observation": {"11": {"stimulus": 30, "trial": 11, "rt": 2870}, "10": {"stimulus": 48, "trial": 10, "rt": 2089}, "1": {"stimulus": 50, "trial": 1, "rt": 3213}, "0": {"stimulus": 48, "trial": 0, "rt": 3957}, "3": {"stimulus": 32, "trial": 3, "rt": 2347}, "2": {"stimulus": 30, "trial": 2, "rt": 2323}, "5": {"stimulus": 50, "trial": 5, "rt": 7958}, "4": {"stimulus": 32, "trial": 4, "rt": 2226}, "7": {"stimulus": 30, "trial": 7, "rt": 2398}, "6": {"stimulus": 48, "trial": 6, "rt": 1112}, "9": {"stimulus": 32, "trial": 9, "rt": 2376}, "8": {"stimulus": 50, "trial": 8, "rt": 2903}}, "generalization": {"56": {"stimulus": 50, "trial": 56, "rt": 937, "response": "Alpha"}, "77": {"stimulus": 65, "trial": 77, "rt": 746, "response": "Alpha"}, "54": {"stimulus": 62, "trial": 54, "rt": 647, "response": "Alpha"}, "42": {"stimulus": 41, "trial": 42, "rt": 876, "response": "Alpha"}, "48": {"stimulus": 56, "trial": 48, "rt": 669, "response": "Alpha"}, "43": {"stimulus": 26, "trial": 43, "rt": 754, "response": "Beta"}, "60": {"stimulus": 63, "trial": 60, "rt": 612, "response": "Alpha"}, "61": {"stimulus": 39, "trial": 61, "rt": 818, "response": "Alpha"}, "62": {"stimulus": 61, "trial": 62, "rt": 575, "response": "Alpha"}, "63": {"stimulus": 14, "trial": 63, "rt": 863, "response": "Beta"}, "64": {"stimulus": 1, "trial": 64, "rt": 934, "response": "Beta"}, "49": {"stimulus": 79, "trial": 49, "rt": 746, "response": "Alpha"}, "66": {"stimulus": 12, "trial": 66, "rt": 666, "response": "Beta"}, "67": {"stimulus": 20, "trial": 67, "rt": 569, "response": "Beta"}, "68": {"stimulus": 40, "trial": 68, "rt": 921, "response": "Alpha"}, "69": {"stimulus": 9, "trial": 69, "rt": 566, "response": "Beta"}, "80": {"stimulus": 75, "trial": 80, "rt": 815, "response": "Alpha"}, "52": {"stimulus": 60, "trial": 52, "rt": 747, "response": "Alpha"}, "53": {"stimulus": 44, "trial": 53, "rt": 808, "response": "Alpha"}, "24": {"stimulus": 53, "trial": 24, "rt": 1018, "response": "Alpha"}, "25": {"stimulus": 5, "trial": 25, "rt": 684, "response": "Beta"}, "26": {"stimulus": 16, "trial": 26, "rt": 679, "response": "Beta"}, "27": {"stimulus": 10, "trial": 27, "rt": 642, "response": "Beta"}, "20": {"stimulus": 77, "trial": 20, "rt": 902, "response": "Alpha"}, "21": {"stimulus": 15, "trial": 21, "rt": 959, "response": "Beta"}, "22": {"stimulus": 68, "trial": 22, "rt": 733, "response": "Alpha"}, "23": {"stimulus": 6, "trial": 23, "rt": 751, "response": "Beta"}, "46": {"stimulus": 72, "trial": 46, "rt": 598, "response": "Alpha"}, "47": {"stimulus": 7, "trial": 47, "rt": 738, "response": "Beta"}, "44": {"stimulus": 3, "trial": 44, "rt": 778, "response": "Beta"}, "45": {"stimulus": 46, "trial": 45, "rt": 683, "response": "Alpha"}, "28": {"stimulus": 38, "trial": 28, "rt": 1248, "response": "Alpha"}, "29": {"stimulus": 67, "trial": 29, "rt": 771, "response": "Alpha"}, "40": {"stimulus": 51, "trial": 40, "rt": 1222, "response": "Alpha"}, "41": {"stimulus": 18, "trial": 41, "rt": 695, "response": "Beta"}, "1": {"stimulus": 33, "trial": 1, "rt": 1444, "response": "Beta"}, "0": {"stimulus": 54, "trial": 0, "rt": 2924, "response": "Alpha"}, "3": {"stimulus": 25, "trial": 3, "rt": 677, "response": "Beta"}, "2": {"stimulus": 30, "trial": 2, "rt": 1009, "response": "Beta"}, "5": {"stimulus": 70, "trial": 5, "rt": 784, "response": "Alpha"}, "4": {"stimulus": 64, "trial": 4, "rt": 1176, "response": "Alpha"}, "7": {"stimulus": 36, "trial": 7, "rt": 889, "response": "Beta"}, "6": {"stimulus": 69, "trial": 6, "rt": 743, "response": "Alpha"}, "9": {"stimulus": 66, "trial": 9, "rt": 960, "response": "Alpha"}, "8": {"stimulus": 22, "trial": 8, "rt": 770, "response": "Beta"}, "78": {"stimulus": 13, "trial": 78, "rt": 891, "response": "Beta"}, "51": {"stimulus": 48, "trial": 51, "rt": 798, "response": "Alpha"}, "39": {"stimulus": 76, "trial": 39, "rt": 802, "response": "Alpha"}, "65": {"stimulus": 78, "trial": 65, "rt": 634, "response": "Alpha"}, "76": {"stimulus": 47, "trial": 76, "rt": 777, "response": "Alpha"}, "75": {"stimulus": 2, "trial": 75, "rt": 915, "response": "Beta"}, "38": {"stimulus": 27, "trial": 38, "rt": 894, "response": "Beta"}, "73": {"stimulus": 58, "trial": 73, "rt": 720, "response": "Alpha"}, "72": {"stimulus": 73, "trial": 72, "rt": 589, "response": "Alpha"}, "71": {"stimulus": 31, "trial": 71, "rt": 1172, "response": "Beta"}, "70": {"stimulus": 37, "trial": 70, "rt": 860, "response": "Beta"}, "59": {"stimulus": 28, "trial": 59, "rt": 1357, "response": "Beta"}, "79": {"stimulus": 71, "trial": 79, "rt": 729, "response": "Alpha"}, "58": {"stimulus": 32, "trial": 58, "rt": 1405, "response": "Alpha"}, "11": {"stimulus": 23, "trial": 11, "rt": 792, "response": "Beta"}, "10": {"stimulus": 43, "trial": 10, "rt": 1027, "response": "Beta"}, "13": {"stimulus": 80, "trial": 13, "rt": 733, "response": "Alpha"}, "12": {"stimulus": 42, "trial": 12, "rt": 818, "response": "Alpha"}, "15": {"stimulus": 19, "trial": 15, "rt": 1048, "response": "Beta"}, "14": {"stimulus": 49, "trial": 14, "rt": 1316, "response": "Alpha"}, "17": {"stimulus": 24, "trial": 17, "rt": 803, "response": "Beta"}, "16": {"stimulus": 17, "trial": 16, "rt": 792, "response": "Beta"}, "19": {"stimulus": 52, "trial": 19, "rt": 942, "response": "Alpha"}, "18": {"stimulus": 0, "trial": 18, "rt": 692, "response": "Beta"}, "31": {"stimulus": 34, "trial": 31, "rt": 2196, "response": "Alpha"}, "30": {"stimulus": 21, "trial": 30, "rt": 780, "response": "Beta"}, "37": {"stimulus": 74, "trial": 37, "rt": 750, "response": "Alpha"}, "36": {"stimulus": 35, "trial": 36, "rt": 2478, "response": "Alpha"}, "35": {"stimulus": 57, "trial": 35, "rt": 912, "response": "Alpha"}, "34": {"stimulus": 8, "trial": 34, "rt": 762, "response": "Beta"}, "33": {"stimulus": 55, "trial": 33, "rt": 818, "response": "Alpha"}, "55": {"stimulus": 59, "trial": 55, "rt": 690, "response": "Alpha"}, "74": {"stimulus": 45, "trial": 74, "rt": 618, "response": "Alpha"}, "32": {"stimulus": 29, "trial": 32, "rt": 1085, "response": "Alpha"}, "57": {"stimulus": 4, "trial": 57, "rt": 1423, "response": "Beta"}, "50": {"stimulus": 11, "trial": 50, "rt": 881, "response": "Beta"}}}