{"generation": {"1": {"stimulus": 66, "trial": 1, "rt": 5216}, "0": {"stimulus": 39, "trial": 0, "rt": 6671}, "3": {"stimulus": 44, "trial": 3, "rt": 1723}, "2": {"stimulus": 4, "trial": 2, "rt": 3081}}, "info": {"finish": 1482181930044, "participant": 153, "exposed": true, "lab": false, "start": 1482181768296, "counterbalance": 4, "condition": "Middle", "browser": {"platform": "Linux x86_64", "userAgent": "Mozilla/5.0 (X11; CrOS x86_64 8872.70.0) AppleWebKit/537.36 (KHTML, like Gecko) Chrome/55.0.2883.87 Safari/537.36"}}, "experiment": {"Paradigm": "TACL", "Stimuli": "Size-Color Squares", "Experiment": "Generating-Categories"}, "observation": {"11": {"stimulus": 48, "trial": 11, "rt": 956}, "10": {"stimulus": 50, "trial": 10, "rt": 1043}, "1": {"stimulus": 50, "trial": 1, "rt": 1701}, "0": {"stimulus": 48, "trial": 0, "rt": 2385}, "3": {"stimulus": 30, "trial": 3, "rt": 1921}, "2": {"stimulus": 32, "trial": 2, "rt": 1567}, "5": {"stimulus": 32, "trial": 5, "rt": 1240}, "4": {"stimulus": 50, "trial": 4, "rt": 1765}, "7": {"stimulus": 30, "trial": 7, "rt": 1382}, "6": {"stimulus": 48, "trial": 6, "rt": 1458}, "9": {"stimulus": 30, "trial": 9, "rt": 1184}, "8": {"stimulus": 32, "trial": 8, "rt": 1024}}, "generalization": {"56": {"stimulus": 26, "trial": 56, "rt": 634, "response": "Alpha"}, "77": {"stimulus": 4, "trial": 77, "rt": 1241, "response": "Beta"}, "54": {"stimulus": 17, "trial": 54, "rt": 837, "response": "Alpha"}, "42": {"stimulus": 65, "trial": 42, "rt": 866, "response": "Beta"}, "48": {"stimulus": 76, "trial": 48, "rt": 1437, "response": "Alpha"}, "43": {"stimulus": 75, "trial": 43, "rt": 750, "response": "Beta"}, "60": {"stimulus": 33, "trial": 60, "rt": 819, "response": "Alpha"}, "61": {"stimulus": 43, "trial": 61, "rt": 632, "response": "Alpha"}, "62": {"stimulus": 20, "trial": 62, "rt": 906, "response": "Beta"}, "63": {"stimulus": 30, "trial": 63, "rt": 679, "response": "Beta"}, "64": {"stimulus": 60, "trial": 64, "rt": 1361, "response": "Alpha"}, "49": {"stimulus": 36, "trial": 49, "rt": 1566, "response": "Beta"}, "66": {"stimulus": 50, "trial": 66, "rt": 847, "response": "Alpha"}, "67": {"stimulus": 8, "trial": 67, "rt": 621, "response": "Alpha"}, "68": {"stimulus": 61, "trial": 68, "rt": 542, "response": "Alpha"}, "69": {"stimulus": 73, "trial": 69, "rt": 828, "response": "Beta"}, "80": {"stimulus": 64, "trial": 80, "rt": 759, "response": "Beta"}, "52": {"stimulus": 55, "trial": 52, "rt": 493, "response": "Beta"}, "53": {"stimulus": 66, "trial": 53, "rt": 463, "response": "Beta"}, "24": {"stimulus": 25, "trial": 24, "rt": 493, "response": "Alpha"}, "25": {"stimulus": 63, "trial": 25, "rt": 1379, "response": "Beta"}, "26": {"stimulus": 37, "trial": 26, "rt": 524, "response": "Beta"}, "27": {"stimulus": 7, "trial": 27, "rt": 866, "response": "Alpha"}, "20": {"stimulus": 22, "trial": 20, "rt": 679, "response": "Alpha"}, "21": {"stimulus": 44, "trial": 21, "rt": 730, "response": "Alpha"}, "22": {"stimulus": 32, "trial": 22, "rt": 562, "response": "Alpha"}, "23": {"stimulus": 70, "trial": 23, "rt": 520, "response": "Alpha"}, "46": {"stimulus": 80, "trial": 46, "rt": 848, "response": "Alpha"}, "47": {"stimulus": 16, "trial": 47, "rt": 532, "response": "Alpha"}, "44": {"stimulus": 53, "trial": 44, "rt": 748, "response": "Alpha"}, "45": {"stimulus": 47, "trial": 45, "rt": 914, "response": "Beta"}, "28": {"stimulus": 79, "trial": 28, "rt": 659, "response": "Alpha"}, "29": {"stimulus": 57, "trial": 29, "rt": 749, "response": "Alpha"}, "40": {"stimulus": 72, "trial": 40, "rt": 828, "response": "Beta"}, "41": {"stimulus": 69, "trial": 41, "rt": 858, "response": "Alpha"}, "1": {"stimulus": 29, "trial": 1, "rt": 818, "response": "Beta"}, "0": {"stimulus": 41, "trial": 0, "rt": 1966, "response": "Alpha"}, "3": {"stimulus": 1, "trial": 3, "rt": 639, "response": "Beta"}, "2": {"stimulus": 21, "trial": 2, "rt": 552, "response": "Beta"}, "5": {"stimulus": 0, "trial": 5, "rt": 1073, "response": "Beta"}, "4": {"stimulus": 58, "trial": 4, "rt": 996, "response": "Alpha"}, "7": {"stimulus": 5, "trial": 7, "rt": 915, "response": "Alpha"}, "6": {"stimulus": 48, "trial": 6, "rt": 840, "response": "Beta"}, "9": {"stimulus": 14, "trial": 9, "rt": 944, "response": "Alpha"}, "8": {"stimulus": 27, "trial": 8, "rt": 880, "response": "Beta"}, "78": {"stimulus": 42, "trial": 78, "rt": 906, "response": "Alpha"}, "51": {"stimulus": 46, "trial": 51, "rt": 592, "response": "Beta"}, "39": {"stimulus": 49, "trial": 39, "rt": 690, "response": "Alpha"}, "65": {"stimulus": 18, "trial": 65, "rt": 1408, "response": "Beta"}, "76": {"stimulus": 62, "trial": 76, "rt": 611, "response": "Alpha"}, "75": {"stimulus": 59, "trial": 75, "rt": 828, "response": "Alpha"}, "38": {"stimulus": 78, "trial": 38, "rt": 921, "response": "Alpha"}, "73": {"stimulus": 56, "trial": 73, "rt": 678, "response": "Beta"}, "72": {"stimulus": 54, "trial": 72, "rt": 857, "response": "Beta"}, "71": {"stimulus": 6, "trial": 71, "rt": 857, "response": "Alpha"}, "70": {"stimulus": 2, "trial": 70, "rt": 531, "response": "Beta"}, "59": {"stimulus": 12, "trial": 59, "rt": 1309, "response": "Beta"}, "79": {"stimulus": 51, "trial": 79, "rt": 1240, "response": "Alpha"}, "58": {"stimulus": 35, "trial": 58, "rt": 845, "response": "Alpha"}, "11": {"stimulus": 28, "trial": 11, "rt": 798, "response": "Beta"}, "10": {"stimulus": 52, "trial": 10, "rt": 622, "response": "Alpha"}, "13": {"stimulus": 40, "trial": 13, "rt": 2195, "response": "Alpha"}, "12": {"stimulus": 24, "trial": 12, "rt": 935, "response": "Alpha"}, "15": {"stimulus": 34, "trial": 15, "rt": 869, "response": "Alpha"}, "14": {"stimulus": 39, "trial": 14, "rt": 1723, "response": "Beta"}, "17": {"stimulus": 74, "trial": 17, "rt": 850, "response": "Beta"}, "16": {"stimulus": 23, "trial": 16, "rt": 785, "response": "Alpha"}, "19": {"stimulus": 31, "trial": 19, "rt": 1222, "response": "Alpha"}, "18": {"stimulus": 77, "trial": 18, "rt": 896, "response": "Alpha"}, "31": {"stimulus": 13, "trial": 31, "rt": 946, "response": "Beta"}, "30": {"stimulus": 71, "trial": 30, "rt": 651, "response": "Alpha"}, "37": {"stimulus": 9, "trial": 37, "rt": 548, "response": "Beta"}, "36": {"stimulus": 19, "trial": 36, "rt": 621, "response": "Beta"}, "35": {"stimulus": 67, "trial": 35, "rt": 758, "response": "Beta"}, "34": {"stimulus": 38, "trial": 34, "rt": 582, "response": "Beta"}, "33": {"stimulus": 10, "trial": 33, "rt": 887, "response": "Beta"}, "55": {"stimulus": 68, "trial": 55, "rt": 611, "response": "Alpha"}, "74": {"stimulus": 45, "trial": 74, "rt": 494, "response": "Beta"}, "32": {"stimulus": 15, "trial": 32, "rt": 925, "response": "Alpha"}, "57": {"stimulus": 11, "trial": 57, "rt": 864, "response": "Beta"}, "50": {"stimulus": 3, "trial": 50, "rt": 493, "response": "Beta"}}}