{"generation": {"1": {"stimulus": 76, "trial": 1, "rt": 17190}, "0": {"stimulus": 72, "trial": 0, "rt": 22655}, "3": {"stimulus": 8, "trial": 3, "rt": 6682}, "2": {"stimulus": 0, "trial": 2, "rt": 5995}}, "info": {"finish": 1482182132380, "participant": 154, "exposed": true, "lab": false, "start": 1482181781386, "counterbalance": 1, "condition": "Middle", "browser": {"platform": "Win32", "userAgent": "Mozilla/5.0 (Windows NT 10.0; WOW64) AppleWebKit/537.36 (KHTML, like Gecko) Chrome/55.0.2883.87 Safari/537.36"}}, "experiment": {"Paradigm": "TACL", "Stimuli": "Size-Color Squares", "Experiment": "Generating-Categories"}, "observation": {"11": {"stimulus": 48, "trial": 11, "rt": 1933}, "10": {"stimulus": 32, "trial": 10, "rt": 2019}, "1": {"stimulus": 32, "trial": 1, "rt": 2792}, "0": {"stimulus": 48, "trial": 0, "rt": 6731}, "3": {"stimulus": 50, "trial": 3, "rt": 2622}, "2": {"stimulus": 30, "trial": 2, "rt": 3060}, "5": {"stimulus": 32, "trial": 5, "rt": 2542}, "4": {"stimulus": 30, "trial": 4, "rt": 2613}, "7": {"stimulus": 50, "trial": 7, "rt": 2376}, "6": {"stimulus": 48, "trial": 6, "rt": 2440}, "9": {"stimulus": 30, "trial": 9, "rt": 2156}, "8": {"stimulus": 50, "trial": 8, "rt": 2323}}, "generalization": {"56": {"stimulus": 36, "trial": 56, "rt": 644, "response": "Alpha"}, "77": {"stimulus": 11, "trial": 77, "rt": 2571, "response": "Alpha"}, "54": {"stimulus": 48, "trial": 54, "rt": 707, "response": "Alpha"}, "42": {"stimulus": 26, "trial": 42, "rt": 930, "response": "Beta"}, "48": {"stimulus": 78, "trial": 48, "rt": 630, "response": "Beta"}, "43": {"stimulus": 21, "trial": 43, "rt": 1845, "response": "Alpha"}, "60": {"stimulus": 54, "trial": 60, "rt": 1620, "response": "Beta"}, "61": {"stimulus": 18, "trial": 61, "rt": 1777, "response": "Alpha"}, "62": {"stimulus": 3, "trial": 62, "rt": 1629, "response": "Alpha"}, "63": {"stimulus": 24, "trial": 63, "rt": 1398, "response": "Alpha"}, "64": {"stimulus": 20, "trial": 64, "rt": 1023, "response": "Alpha"}, "49": {"stimulus": 32, "trial": 49, "rt": 1606, "response": "Alpha"}, "66": {"stimulus": 22, "trial": 66, "rt": 968, "response": "Alpha"}, "67": {"stimulus": 17, "trial": 67, "rt": 999, "response": "Alpha"}, "68": {"stimulus": 38, "trial": 68, "rt": 1336, "response": "Alpha"}, "69": {"stimulus": 47, "trial": 69, "rt": 1273, "response": "Alpha"}, "80": {"stimulus": 10, "trial": 80, "rt": 1314, "response": "Alpha"}, "52": {"stimulus": 6, "trial": 52, "rt": 1648, "response": "Beta"}, "53": {"stimulus": 43, "trial": 53, "rt": 1802, "response": "Alpha"}, "24": {"stimulus": 77, "trial": 24, "rt": 1395, "response": "Beta"}, "25": {"stimulus": 44, "trial": 25, "rt": 1579, "response": "Beta"}, "26": {"stimulus": 35, "trial": 26, "rt": 1543, "response": "Alpha"}, "27": {"stimulus": 40, "trial": 27, "rt": 800, "response": "Alpha"}, "20": {"stimulus": 0, "trial": 20, "rt": 959, "response": "Beta"}, "21": {"stimulus": 76, "trial": 21, "rt": 1072, "response": "Beta"}, "22": {"stimulus": 60, "trial": 22, "rt": 1018, "response": "Beta"}, "23": {"stimulus": 62, "trial": 23, "rt": 1128, "response": "Beta"}, "46": {"stimulus": 79, "trial": 46, "rt": 735, "response": "Beta"}, "47": {"stimulus": 75, "trial": 47, "rt": 694, "response": "Beta"}, "44": {"stimulus": 63, "trial": 44, "rt": 1367, "response": "Beta"}, "45": {"stimulus": 69, "trial": 45, "rt": 1049, "response": "Beta"}, "28": {"stimulus": 53, "trial": 28, "rt": 1063, "response": "Alpha"}, "29": {"stimulus": 8, "trial": 29, "rt": 2079, "response": "Beta"}, "40": {"stimulus": 58, "trial": 40, "rt": 1486, "response": "Beta"}, "41": {"stimulus": 70, "trial": 41, "rt": 722, "response": "Beta"}, "1": {"stimulus": 50, "trial": 1, "rt": 2689, "response": "Alpha"}, "0": {"stimulus": 39, "trial": 0, "rt": 1874, "response": "Alpha"}, "3": {"stimulus": 71, "trial": 3, "rt": 845, "response": "Beta"}, "2": {"stimulus": 55, "trial": 2, "rt": 1229, "response": "Beta"}, "5": {"stimulus": 57, "trial": 5, "rt": 2435, "response": "Beta"}, "4": {"stimulus": 45, "trial": 4, "rt": 1538, "response": "Alpha"}, "7": {"stimulus": 4, "trial": 7, "rt": 2035, "response": "Alpha"}, "6": {"stimulus": 12, "trial": 6, "rt": 3305, "response": "Alpha"}, "9": {"stimulus": 5, "trial": 9, "rt": 1942, "response": "Alpha"}, "8": {"stimulus": 61, "trial": 8, "rt": 1378, "response": "Beta"}, "78": {"stimulus": 65, "trial": 78, "rt": 1494, "response": "Beta"}, "51": {"stimulus": 13, "trial": 51, "rt": 787, "response": "Alpha"}, "39": {"stimulus": 23, "trial": 39, "rt": 760, "response": "Alpha"}, "65": {"stimulus": 46, "trial": 65, "rt": 1357, "response": "Alpha"}, "76": {"stimulus": 37, "trial": 76, "rt": 2193, "response": "Alpha"}, "75": {"stimulus": 31, "trial": 75, "rt": 1658, "response": "Alpha"}, "38": {"stimulus": 25, "trial": 38, "rt": 935, "response": "Alpha"}, "73": {"stimulus": 51, "trial": 73, "rt": 2206, "response": "Alpha"}, "72": {"stimulus": 29, "trial": 72, "rt": 1931, "response": "Alpha"}, "71": {"stimulus": 74, "trial": 71, "rt": 781, "response": "Beta"}, "70": {"stimulus": 68, "trial": 70, "rt": 1653, "response": "Beta"}, "59": {"stimulus": 1, "trial": 59, "rt": 1103, "response": "Alpha"}, "79": {"stimulus": 34, "trial": 79, "rt": 1726, "response": "Alpha"}, "58": {"stimulus": 30, "trial": 58, "rt": 2517, "response": "Alpha"}, "11": {"stimulus": 49, "trial": 11, "rt": 1560, "response": "Alpha"}, "10": {"stimulus": 16, "trial": 10, "rt": 1526, "response": "Beta"}, "13": {"stimulus": 7, "trial": 13, "rt": 1398, "response": "Beta"}, "12": {"stimulus": 64, "trial": 12, "rt": 911, "response": "Beta"}, "15": {"stimulus": 41, "trial": 15, "rt": 2019, "response": "Alpha"}, "14": {"stimulus": 80, "trial": 14, "rt": 904, "response": "Beta"}, "17": {"stimulus": 56, "trial": 17, "rt": 2237, "response": "Beta"}, "16": {"stimulus": 33, "trial": 16, "rt": 1230, "response": "Alpha"}, "19": {"stimulus": 72, "trial": 19, "rt": 1245, "response": "Beta"}, "18": {"stimulus": 15, "trial": 18, "rt": 1724, "response": "Beta"}, "31": {"stimulus": 52, "trial": 31, "rt": 1385, "response": "Alpha"}, "30": {"stimulus": 9, "trial": 30, "rt": 1911, "response": "Alpha"}, "37": {"stimulus": 14, "trial": 37, "rt": 1558, "response": "Alpha"}, "36": {"stimulus": 59, "trial": 36, "rt": 2257, "response": "Beta"}, "35": {"stimulus": 2, "trial": 35, "rt": 1215, "response": "Beta"}, "34": {"stimulus": 27, "trial": 34, "rt": 922, "response": "Beta"}, "33": {"stimulus": 73, "trial": 33, "rt": 1308, "response": "Beta"}, "55": {"stimulus": 28, "trial": 55, "rt": 891, "response": "Alpha"}, "74": {"stimulus": 66, "trial": 74, "rt": 1515, "response": "Beta"}, "32": {"stimulus": 42, "trial": 32, "rt": 917, "response": "Alpha"}, "57": {"stimulus": 67, "trial": 57, "rt": 1637, "response": "Beta"}, "50": {"stimulus": 19, "trial": 50, "rt": 1035, "response": "Alpha"}}}