{"generation": {"1": {"stimulus": 2, "trial": 1, "rt": 4432}, "0": {"stimulus": 5, "trial": 0, "rt": 12903}, "3": {"stimulus": 6, "trial": 3, "rt": 5106}, "2": {"stimulus": 4, "trial": 2, "rt": 7894}}, "info": {"finish": 1482182053683, "participant": 155, "exposed": true, "lab": false, "start": 1482181845712, "counterbalance": 3, "condition": "Middle", "browser": {"platform": "Win32", "userAgent": "Mozilla/5.0 (Windows NT 6.1; WOW64; rv:50.0) Gecko/20100101 Firefox/50.0"}}, "experiment": {"Paradigm": "TACL", "Stimuli": "Size-Color Squares", "Experiment": "Generating-Categories"}, "observation": {"11": {"stimulus": 30, "trial": 11, "rt": 921}, "10": {"stimulus": 50, "trial": 10, "rt": 790}, "1": {"stimulus": 50, "trial": 1, "rt": 1636}, "0": {"stimulus": 32, "trial": 0, "rt": 2011}, "3": {"stimulus": 48, "trial": 3, "rt": 1463}, "2": {"stimulus": 30, "trial": 2, "rt": 1612}, "5": {"stimulus": 50, "trial": 5, "rt": 912}, "4": {"stimulus": 30, "trial": 4, "rt": 1165}, "7": {"stimulus": 48, "trial": 7, "rt": 957}, "6": {"stimulus": 32, "trial": 6, "rt": 1216}, "9": {"stimulus": 32, "trial": 9, "rt": 1013}, "8": {"stimulus": 48, "trial": 8, "rt": 945}}, "generalization": {"56": {"stimulus": 45, "trial": 56, "rt": 596, "response": "Alpha"}, "77": {"stimulus": 7, "trial": 77, "rt": 789, "response": "Beta"}, "54": {"stimulus": 22, "trial": 54, "rt": 603, "response": "Alpha"}, "42": {"stimulus": 75, "trial": 42, "rt": 500, "response": "Alpha"}, "48": {"stimulus": 54, "trial": 48, "rt": 422, "response": "Alpha"}, "43": {"stimulus": 18, "trial": 43, "rt": 792, "response": "Beta"}, "60": {"stimulus": 49, "trial": 60, "rt": 820, "response": "Alpha"}, "61": {"stimulus": 48, "trial": 61, "rt": 515, "response": "Alpha"}, "62": {"stimulus": 70, "trial": 62, "rt": 507, "response": "Alpha"}, "63": {"stimulus": 23, "trial": 63, "rt": 805, "response": "Beta"}, "64": {"stimulus": 19, "trial": 64, "rt": 2129, "response": "Alpha"}, "49": {"stimulus": 32, "trial": 49, "rt": 405, "response": "Alpha"}, "66": {"stimulus": 10, "trial": 66, "rt": 875, "response": "Beta"}, "67": {"stimulus": 11, "trial": 67, "rt": 544, "response": "Beta"}, "68": {"stimulus": 1, "trial": 68, "rt": 534, "response": "Beta"}, "69": {"stimulus": 74, "trial": 69, "rt": 767, "response": "Alpha"}, "80": {"stimulus": 38, "trial": 80, "rt": 651, "response": "Alpha"}, "52": {"stimulus": 4, "trial": 52, "rt": 459, "response": "Beta"}, "53": {"stimulus": 41, "trial": 53, "rt": 778, "response": "Alpha"}, "24": {"stimulus": 9, "trial": 24, "rt": 905, "response": "Beta"}, "25": {"stimulus": 15, "trial": 25, "rt": 478, "response": "Beta"}, "26": {"stimulus": 68, "trial": 26, "rt": 901, "response": "Alpha"}, "27": {"stimulus": 34, "trial": 27, "rt": 2952, "response": "Alpha"}, "20": {"stimulus": 16, "trial": 20, "rt": 1469, "response": "Beta"}, "21": {"stimulus": 37, "trial": 21, "rt": 805, "response": "Alpha"}, "22": {"stimulus": 63, "trial": 22, "rt": 545, "response": "Alpha"}, "23": {"stimulus": 31, "trial": 23, "rt": 631, "response": "Alpha"}, "46": {"stimulus": 69, "trial": 46, "rt": 415, "response": "Alpha"}, "47": {"stimulus": 52, "trial": 47, "rt": 397, "response": "Alpha"}, "44": {"stimulus": 17, "trial": 44, "rt": 473, "response": "Beta"}, "45": {"stimulus": 66, "trial": 45, "rt": 512, "response": "Alpha"}, "28": {"stimulus": 56, "trial": 28, "rt": 689, "response": "Alpha"}, "29": {"stimulus": 51, "trial": 29, "rt": 505, "response": "Alpha"}, "40": {"stimulus": 2, "trial": 40, "rt": 821, "response": "Beta"}, "41": {"stimulus": 55, "trial": 41, "rt": 831, "response": "Alpha"}, "1": {"stimulus": 25, "trial": 1, "rt": 1480, "response": "Beta"}, "0": {"stimulus": 79, "trial": 0, "rt": 1859, "response": "Alpha"}, "3": {"stimulus": 61, "trial": 3, "rt": 685, "response": "Alpha"}, "2": {"stimulus": 46, "trial": 2, "rt": 1062, "response": "Alpha"}, "5": {"stimulus": 57, "trial": 5, "rt": 633, "response": "Alpha"}, "4": {"stimulus": 35, "trial": 4, "rt": 1114, "response": "Beta"}, "7": {"stimulus": 64, "trial": 7, "rt": 825, "response": "Alpha"}, "6": {"stimulus": 5, "trial": 6, "rt": 1421, "response": "Beta"}, "9": {"stimulus": 53, "trial": 9, "rt": 511, "response": "Alpha"}, "8": {"stimulus": 33, "trial": 8, "rt": 1046, "response": "Alpha"}, "78": {"stimulus": 43, "trial": 78, "rt": 1113, "response": "Alpha"}, "51": {"stimulus": 0, "trial": 51, "rt": 953, "response": "Beta"}, "39": {"stimulus": 29, "trial": 39, "rt": 406, "response": "Alpha"}, "65": {"stimulus": 50, "trial": 65, "rt": 473, "response": "Alpha"}, "76": {"stimulus": 65, "trial": 76, "rt": 631, "response": "Alpha"}, "75": {"stimulus": 73, "trial": 75, "rt": 890, "response": "Alpha"}, "38": {"stimulus": 78, "trial": 38, "rt": 426, "response": "Alpha"}, "73": {"stimulus": 67, "trial": 73, "rt": 437, "response": "Alpha"}, "72": {"stimulus": 58, "trial": 72, "rt": 448, "response": "Alpha"}, "71": {"stimulus": 60, "trial": 71, "rt": 439, "response": "Alpha"}, "70": {"stimulus": 71, "trial": 70, "rt": 449, "response": "Alpha"}, "59": {"stimulus": 13, "trial": 59, "rt": 861, "response": "Beta"}, "79": {"stimulus": 8, "trial": 79, "rt": 813, "response": "Beta"}, "58": {"stimulus": 40, "trial": 58, "rt": 605, "response": "Alpha"}, "11": {"stimulus": 47, "trial": 11, "rt": 592, "response": "Alpha"}, "10": {"stimulus": 42, "trial": 10, "rt": 594, "response": "Alpha"}, "13": {"stimulus": 30, "trial": 13, "rt": 952, "response": "Beta"}, "12": {"stimulus": 14, "trial": 12, "rt": 1191, "response": "Beta"}, "15": {"stimulus": 24, "trial": 15, "rt": 643, "response": "Beta"}, "14": {"stimulus": 27, "trial": 14, "rt": 530, "response": "Beta"}, "17": {"stimulus": 77, "trial": 17, "rt": 469, "response": "Alpha"}, "16": {"stimulus": 76, "trial": 16, "rt": 882, "response": "Alpha"}, "19": {"stimulus": 72, "trial": 19, "rt": 2822, "response": "Alpha"}, "18": {"stimulus": 3, "trial": 18, "rt": 867, "response": "Beta"}, "31": {"stimulus": 36, "trial": 31, "rt": 492, "response": "Alpha"}, "30": {"stimulus": 80, "trial": 30, "rt": 414, "response": "Alpha"}, "37": {"stimulus": 44, "trial": 37, "rt": 505, "response": "Alpha"}, "36": {"stimulus": 20, "trial": 36, "rt": 851, "response": "Alpha"}, "35": {"stimulus": 6, "trial": 35, "rt": 815, "response": "Beta"}, "34": {"stimulus": 28, "trial": 34, "rt": 712, "response": "Alpha"}, "33": {"stimulus": 26, "trial": 33, "rt": 1264, "response": "Beta"}, "55": {"stimulus": 59, "trial": 55, "rt": 461, "response": "Alpha"}, "74": {"stimulus": 12, "trial": 74, "rt": 1144, "response": "Beta"}, "32": {"stimulus": 39, "trial": 32, "rt": 437, "response": "Alpha"}, "57": {"stimulus": 62, "trial": 57, "rt": 5511, "response": "Alpha"}, "50": {"stimulus": 21, "trial": 50, "rt": 675, "response": "Alpha"}}}