{"generation": {"1": {"stimulus": 69, "trial": 1, "rt": 7661}, "0": {"stimulus": 79, "trial": 0, "rt": 23025}, "3": {"stimulus": 80, "trial": 3, "rt": 3940}, "2": {"stimulus": 70, "trial": 2, "rt": 9355}}, "info": {"finish": 1482182143396, "participant": 157, "exposed": true, "lab": false, "start": 1482181886829, "counterbalance": 0, "condition": "Middle", "browser": {"platform": "MacIntel", "userAgent": "Mozilla/5.0 (Macintosh; Intel Mac OS X 10_11_6) AppleWebKit/537.36 (KHTML, like Gecko) Chrome/51.0.2704.106 Safari/537.36"}}, "experiment": {"Paradigm": "TACL", "Stimuli": "Size-Color Squares", "Experiment": "Generating-Categories"}, "observation": {"11": {"stimulus": 32, "trial": 11, "rt": 1033}, "10": {"stimulus": 30, "trial": 10, "rt": 1374}, "1": {"stimulus": 48, "trial": 1, "rt": 1421}, "0": {"stimulus": 32, "trial": 0, "rt": 2232}, "3": {"stimulus": 50, "trial": 3, "rt": 1264}, "2": {"stimulus": 30, "trial": 2, "rt": 2584}, "5": {"stimulus": 30, "trial": 5, "rt": 1257}, "4": {"stimulus": 50, "trial": 4, "rt": 1119}, "7": {"stimulus": 32, "trial": 7, "rt": 1075}, "6": {"stimulus": 48, "trial": 6, "rt": 1309}, "9": {"stimulus": 48, "trial": 9, "rt": 1787}, "8": {"stimulus": 50, "trial": 8, "rt": 1061}}, "generalization": {"56": {"stimulus": 1, "trial": 56, "rt": 759, "response": "Alpha"}, "77": {"stimulus": 33, "trial": 77, "rt": 7438, "response": "Alpha"}, "54": {"stimulus": 16, "trial": 54, "rt": 699, "response": "Alpha"}, "42": {"stimulus": 77, "trial": 42, "rt": 842, "response": "Beta"}, "48": {"stimulus": 60, "trial": 48, "rt": 2649, "response": "Beta"}, "43": {"stimulus": 37, "trial": 43, "rt": 833, "response": "Alpha"}, "60": {"stimulus": 61, "trial": 60, "rt": 1259, "response": "Alpha"}, "61": {"stimulus": 23, "trial": 61, "rt": 733, "response": "Alpha"}, "62": {"stimulus": 75, "trial": 62, "rt": 918, "response": "Beta"}, "63": {"stimulus": 15, "trial": 63, "rt": 558, "response": "Alpha"}, "64": {"stimulus": 62, "trial": 64, "rt": 1215, "response": "Alpha"}, "49": {"stimulus": 79, "trial": 49, "rt": 862, "response": "Beta"}, "66": {"stimulus": 71, "trial": 66, "rt": 767, "response": "Alpha"}, "67": {"stimulus": 8, "trial": 67, "rt": 646, "response": "Alpha"}, "68": {"stimulus": 40, "trial": 68, "rt": 727, "response": "Alpha"}, "69": {"stimulus": 38, "trial": 69, "rt": 721, "response": "Alpha"}, "80": {"stimulus": 14, "trial": 80, "rt": 888, "response": "Alpha"}, "52": {"stimulus": 74, "trial": 52, "rt": 901, "response": "Beta"}, "53": {"stimulus": 26, "trial": 53, "rt": 924, "response": "Alpha"}, "24": {"stimulus": 27, "trial": 24, "rt": 2020, "response": "Alpha"}, "25": {"stimulus": 72, "trial": 25, "rt": 976, "response": "Beta"}, "26": {"stimulus": 47, "trial": 26, "rt": 1462, "response": "Alpha"}, "27": {"stimulus": 22, "trial": 27, "rt": 1191, "response": "Alpha"}, "20": {"stimulus": 3, "trial": 20, "rt": 975, "response": "Alpha"}, "21": {"stimulus": 25, "trial": 21, "rt": 1113, "response": "Alpha"}, "22": {"stimulus": 68, "trial": 22, "rt": 1028, "response": "Beta"}, "23": {"stimulus": 24, "trial": 23, "rt": 1005, "response": "Alpha"}, "46": {"stimulus": 63, "trial": 46, "rt": 1409, "response": "Beta"}, "47": {"stimulus": 29, "trial": 47, "rt": 4341, "response": "Alpha"}, "44": {"stimulus": 7, "trial": 44, "rt": 747, "response": "Alpha"}, "45": {"stimulus": 41, "trial": 45, "rt": 866, "response": "Alpha"}, "28": {"stimulus": 21, "trial": 28, "rt": 647, "response": "Alpha"}, "29": {"stimulus": 0, "trial": 29, "rt": 1524, "response": "Alpha"}, "40": {"stimulus": 42, "trial": 40, "rt": 588, "response": "Alpha"}, "41": {"stimulus": 36, "trial": 41, "rt": 779, "response": "Alpha"}, "1": {"stimulus": 48, "trial": 1, "rt": 1051, "response": "Alpha"}, "0": {"stimulus": 80, "trial": 0, "rt": 2644, "response": "Beta"}, "3": {"stimulus": 54, "trial": 3, "rt": 2424, "response": "Alpha"}, "2": {"stimulus": 32, "trial": 2, "rt": 1315, "response": "Alpha"}, "5": {"stimulus": 6, "trial": 5, "rt": 985, "response": "Alpha"}, "4": {"stimulus": 5, "trial": 4, "rt": 9570, "response": "Alpha"}, "7": {"stimulus": 76, "trial": 7, "rt": 937, "response": "Beta"}, "6": {"stimulus": 31, "trial": 6, "rt": 938, "response": "Alpha"}, "9": {"stimulus": 46, "trial": 9, "rt": 1074, "response": "Alpha"}, "8": {"stimulus": 35, "trial": 8, "rt": 1234, "response": "Alpha"}, "78": {"stimulus": 17, "trial": 78, "rt": 672, "response": "Alpha"}, "51": {"stimulus": 4, "trial": 51, "rt": 892, "response": "Alpha"}, "39": {"stimulus": 51, "trial": 39, "rt": 1356, "response": "Alpha"}, "65": {"stimulus": 57, "trial": 65, "rt": 669, "response": "Alpha"}, "76": {"stimulus": 28, "trial": 76, "rt": 492, "response": "Alpha"}, "75": {"stimulus": 12, "trial": 75, "rt": 672, "response": "Alpha"}, "38": {"stimulus": 20, "trial": 38, "rt": 712, "response": "Alpha"}, "73": {"stimulus": 13, "trial": 73, "rt": 699, "response": "Alpha"}, "72": {"stimulus": 53, "trial": 72, "rt": 745, "response": "Alpha"}, "71": {"stimulus": 34, "trial": 71, "rt": 636, "response": "Alpha"}, "70": {"stimulus": 65, "trial": 70, "rt": 2608, "response": "Alpha"}, "59": {"stimulus": 2, "trial": 59, "rt": 1087, "response": "Alpha"}, "79": {"stimulus": 78, "trial": 79, "rt": 857, "response": "Beta"}, "58": {"stimulus": 55, "trial": 58, "rt": 775, "response": "Alpha"}, "11": {"stimulus": 64, "trial": 11, "rt": 2028, "response": "Alpha"}, "10": {"stimulus": 43, "trial": 10, "rt": 915, "response": "Alpha"}, "13": {"stimulus": 56, "trial": 13, "rt": 772, "response": "Alpha"}, "12": {"stimulus": 18, "trial": 12, "rt": 755, "response": "Alpha"}, "15": {"stimulus": 10, "trial": 15, "rt": 1112, "response": "Alpha"}, "14": {"stimulus": 59, "trial": 14, "rt": 1136, "response": "Alpha"}, "17": {"stimulus": 44, "trial": 17, "rt": 739, "response": "Alpha"}, "16": {"stimulus": 58, "trial": 16, "rt": 1012, "response": "Alpha"}, "19": {"stimulus": 45, "trial": 19, "rt": 1874, "response": "Alpha"}, "18": {"stimulus": 30, "trial": 18, "rt": 1493, "response": "Alpha"}, "31": {"stimulus": 9, "trial": 31, "rt": 778, "response": "Alpha"}, "30": {"stimulus": 49, "trial": 30, "rt": 843, "response": "Alpha"}, "37": {"stimulus": 73, "trial": 37, "rt": 920, "response": "Beta"}, "36": {"stimulus": 50, "trial": 36, "rt": 746, "response": "Alpha"}, "35": {"stimulus": 39, "trial": 35, "rt": 914, "response": "Alpha"}, "34": {"stimulus": 69, "trial": 34, "rt": 2139, "response": "Beta"}, "33": {"stimulus": 11, "trial": 33, "rt": 737, "response": "Alpha"}, "55": {"stimulus": 67, "trial": 55, "rt": 1018, "response": "Beta"}, "74": {"stimulus": 66, "trial": 74, "rt": 1885, "response": "Beta"}, "32": {"stimulus": 19, "trial": 32, "rt": 529, "response": "Alpha"}, "57": {"stimulus": 52, "trial": 57, "rt": 1173, "response": "Alpha"}, "50": {"stimulus": 70, "trial": 50, "rt": 962, "response": "Beta"}}}