{"generation": {"1": {"stimulus": 72, "trial": 1, "rt": 5535}, "0": {"stimulus": 80, "trial": 0, "rt": 9920}, "3": {"stimulus": 8, "trial": 3, "rt": 3896}, "2": {"stimulus": 0, "trial": 2, "rt": 4851}}, "info": {"finish": 1482182445787, "participant": 159, "exposed": true, "lab": false, "start": 1482181987314, "counterbalance": 7, "condition": "Middle", "browser": {"platform": "MacIntel", "userAgent": "Mozilla/5.0 (Macintosh; Intel Mac OS X 10_9_5) AppleWebKit/537.36 (KHTML, like Gecko) Chrome/54.0.2840.98 Safari/537.36"}}, "experiment": {"Paradigm": "TACL", "Stimuli": "Size-Color Squares", "Experiment": "Generating-Categories"}, "observation": {"11": {"stimulus": 30, "trial": 11, "rt": 1006}, "10": {"stimulus": 50, "trial": 10, "rt": 975}, "1": {"stimulus": 48, "trial": 1, "rt": 1263}, "0": {"stimulus": 32, "trial": 0, "rt": 1792}, "3": {"stimulus": 30, "trial": 3, "rt": 1088}, "2": {"stimulus": 50, "trial": 2, "rt": 1069}, "5": {"stimulus": 30, "trial": 5, "rt": 968}, "4": {"stimulus": 48, "trial": 4, "rt": 925}, "7": {"stimulus": 50, "trial": 7, "rt": 943}, "6": {"stimulus": 32, "trial": 6, "rt": 981}, "9": {"stimulus": 48, "trial": 9, "rt": 1225}, "8": {"stimulus": 32, "trial": 8, "rt": 949}}, "generalization": {"56": {"stimulus": 50, "trial": 56, "rt": 1515, "response": "Alpha"}, "77": {"stimulus": 76, "trial": 77, "rt": 734, "response": "Alpha"}, "54": {"stimulus": 33, "trial": 54, "rt": 1654, "response": "Beta"}, "42": {"stimulus": 51, "trial": 42, "rt": 1183, "response": "Alpha"}, "48": {"stimulus": 63, "trial": 48, "rt": 1224, "response": "Beta"}, "43": {"stimulus": 40, "trial": 43, "rt": 748, "response": "Alpha"}, "60": {"stimulus": 73, "trial": 60, "rt": 1513, "response": "Alpha"}, "61": {"stimulus": 66, "trial": 61, "rt": 1183, "response": "Alpha"}, "62": {"stimulus": 53, "trial": 62, "rt": 875, "response": "Beta"}, "63": {"stimulus": 39, "trial": 63, "rt": 896, "response": "Alpha"}, "64": {"stimulus": 25, "trial": 64, "rt": 1209, "response": "Beta"}, "49": {"stimulus": 21, "trial": 49, "rt": 1320, "response": "Alpha"}, "66": {"stimulus": 41, "trial": 66, "rt": 920, "response": "Alpha"}, "67": {"stimulus": 61, "trial": 67, "rt": 3192, "response": "Beta"}, "68": {"stimulus": 23, "trial": 68, "rt": 1151, "response": "Alpha"}, "69": {"stimulus": 22, "trial": 69, "rt": 588, "response": "Alpha"}, "80": {"stimulus": 54, "trial": 80, "rt": 786, "response": "Beta"}, "52": {"stimulus": 47, "trial": 52, "rt": 985, "response": "Alpha"}, "53": {"stimulus": 16, "trial": 53, "rt": 989, "response": "Beta"}, "24": {"stimulus": 10, "trial": 24, "rt": 829, "response": "Alpha"}, "25": {"stimulus": 2, "trial": 25, "rt": 686, "response": "Alpha"}, "26": {"stimulus": 43, "trial": 26, "rt": 1584, "response": "Beta"}, "27": {"stimulus": 8, "trial": 27, "rt": 765, "response": "Beta"}, "20": {"stimulus": 79, "trial": 20, "rt": 718, "response": "Beta"}, "21": {"stimulus": 62, "trial": 21, "rt": 631, "response": "Beta"}, "22": {"stimulus": 0, "trial": 22, "rt": 1124, "response": "Beta"}, "23": {"stimulus": 71, "trial": 23, "rt": 1111, "response": "Beta"}, "46": {"stimulus": 75, "trial": 46, "rt": 1201, "response": "Alpha"}, "47": {"stimulus": 29, "trial": 47, "rt": 1015, "response": "Alpha"}, "44": {"stimulus": 77, "trial": 44, "rt": 1080, "response": "Alpha"}, "45": {"stimulus": 80, "trial": 45, "rt": 722, "response": "Beta"}, "28": {"stimulus": 32, "trial": 28, "rt": 880, "response": "Alpha"}, "29": {"stimulus": 11, "trial": 29, "rt": 629, "response": "Alpha"}, "40": {"stimulus": 78, "trial": 40, "rt": 755, "response": "Beta"}, "41": {"stimulus": 55, "trial": 41, "rt": 1355, "response": "Alpha"}, "1": {"stimulus": 17, "trial": 1, "rt": 981, "response": "Beta"}, "0": {"stimulus": 38, "trial": 0, "rt": 1061, "response": "Alpha"}, "3": {"stimulus": 28, "trial": 3, "rt": 850, "response": "Alpha"}, "2": {"stimulus": 70, "trial": 2, "rt": 982, "response": "Beta"}, "5": {"stimulus": 1, "trial": 5, "rt": 2139, "response": "Alpha"}, "4": {"stimulus": 9, "trial": 4, "rt": 2107, "response": "Beta"}, "7": {"stimulus": 44, "trial": 7, "rt": 913, "response": "Beta"}, "6": {"stimulus": 42, "trial": 6, "rt": 1621, "response": "Beta"}, "9": {"stimulus": 45, "trial": 9, "rt": 1289, "response": "Beta"}, "8": {"stimulus": 69, "trial": 8, "rt": 1458, "response": "Alpha"}, "78": {"stimulus": 34, "trial": 78, "rt": 1465, "response": "Beta"}, "51": {"stimulus": 4, "trial": 51, "rt": 710, "response": "Alpha"}, "39": {"stimulus": 20, "trial": 39, "rt": 952, "response": "Alpha"}, "65": {"stimulus": 52, "trial": 65, "rt": 2687, "response": "Beta"}, "76": {"stimulus": 6, "trial": 76, "rt": 1976, "response": "Beta"}, "75": {"stimulus": 26, "trial": 75, "rt": 1327, "response": "Beta"}, "38": {"stimulus": 19, "trial": 38, "rt": 902, "response": "Alpha"}, "73": {"stimulus": 35, "trial": 73, "rt": 779, "response": "Beta"}, "72": {"stimulus": 30, "trial": 72, "rt": 601, "response": "Alpha"}, "71": {"stimulus": 12, "trial": 71, "rt": 740, "response": "Alpha"}, "70": {"stimulus": 67, "trial": 70, "rt": 616, "response": "Alpha"}, "59": {"stimulus": 49, "trial": 59, "rt": 756, "response": "Alpha"}, "79": {"stimulus": 64, "trial": 79, "rt": 1727, "response": "Beta"}, "58": {"stimulus": 27, "trial": 58, "rt": 912, "response": "Beta"}, "11": {"stimulus": 5, "trial": 11, "rt": 2348, "response": "Alpha"}, "10": {"stimulus": 57, "trial": 10, "rt": 780, "response": "Alpha"}, "13": {"stimulus": 59, "trial": 13, "rt": 947, "response": "Alpha"}, "12": {"stimulus": 36, "trial": 12, "rt": 1359, "response": "Beta"}, "15": {"stimulus": 48, "trial": 15, "rt": 802, "response": "Alpha"}, "14": {"stimulus": 13, "trial": 14, "rt": 793, "response": "Alpha"}, "17": {"stimulus": 14, "trial": 17, "rt": 944, "response": "Alpha"}, "16": {"stimulus": 3, "trial": 16, "rt": 662, "response": "Alpha"}, "19": {"stimulus": 24, "trial": 19, "rt": 971, "response": "Alpha"}, "18": {"stimulus": 37, "trial": 18, "rt": 1220, "response": "Alpha"}, "31": {"stimulus": 72, "trial": 31, "rt": 1022, "response": "Beta"}, "30": {"stimulus": 60, "trial": 30, "rt": 928, "response": "Alpha"}, "37": {"stimulus": 7, "trial": 37, "rt": 843, "response": "Beta"}, "36": {"stimulus": 65, "trial": 36, "rt": 998, "response": "Alpha"}, "35": {"stimulus": 18, "trial": 35, "rt": 1224, "response": "Beta"}, "34": {"stimulus": 15, "trial": 34, "rt": 1249, "response": "Alpha"}, "33": {"stimulus": 56, "trial": 33, "rt": 1038, "response": "Alpha"}, "55": {"stimulus": 74, "trial": 55, "rt": 928, "response": "Alpha"}, "74": {"stimulus": 31, "trial": 74, "rt": 1176, "response": "Alpha"}, "32": {"stimulus": 58, "trial": 32, "rt": 1434, "response": "Alpha"}, "57": {"stimulus": 46, "trial": 57, "rt": 1912, "response": "Alpha"}, "50": {"stimulus": 68, "trial": 50, "rt": 827, "response": "Alpha"}}}