{"generation": {"1": {"stimulus": 72, "trial": 1, "rt": 9188}, "0": {"stimulus": 0, "trial": 0, "rt": 12380}, "3": {"stimulus": 80, "trial": 3, "rt": 4541}, "2": {"stimulus": 8, "trial": 2, "rt": 10456}}, "info": {"finish": 1482182277212, "participant": 160, "exposed": true, "lab": false, "start": 1482182034917, "counterbalance": 0, "condition": "Middle", "browser": {"platform": "MacIntel", "userAgent": "Mozilla/5.0 (Macintosh; Intel Mac OS X 10_12_0) AppleWebKit/537.36 (KHTML, like Gecko) Chrome/55.0.2883.95 Safari/537.36"}}, "experiment": {"Paradigm": "TACL", "Stimuli": "Size-Color Squares", "Experiment": "Generating-Categories"}, "observation": {"11": {"stimulus": 30, "trial": 11, "rt": 1016}, "10": {"stimulus": 32, "trial": 10, "rt": 941}, "1": {"stimulus": 50, "trial": 1, "rt": 1697}, "0": {"stimulus": 48, "trial": 0, "rt": 2545}, "3": {"stimulus": 30, "trial": 3, "rt": 1212}, "2": {"stimulus": 32, "trial": 2, "rt": 1369}, "5": {"stimulus": 30, "trial": 5, "rt": 1180}, "4": {"stimulus": 32, "trial": 4, "rt": 1257}, "7": {"stimulus": 50, "trial": 7, "rt": 1025}, "6": {"stimulus": 48, "trial": 6, "rt": 1173}, "9": {"stimulus": 48, "trial": 9, "rt": 1056}, "8": {"stimulus": 50, "trial": 8, "rt": 1172}}, "generalization": {"56": {"stimulus": 7, "trial": 56, "rt": 969, "response": "Beta"}, "77": {"stimulus": 74, "trial": 77, "rt": 1028, "response": "Beta"}, "54": {"stimulus": 67, "trial": 54, "rt": 499, "response": "Alpha"}, "42": {"stimulus": 28, "trial": 42, "rt": 1400, "response": "Alpha"}, "48": {"stimulus": 27, "trial": 48, "rt": 879, "response": "Alpha"}, "43": {"stimulus": 61, "trial": 43, "rt": 971, "response": "Beta"}, "60": {"stimulus": 68, "trial": 60, "rt": 603, "response": "Alpha"}, "61": {"stimulus": 80, "trial": 61, "rt": 996, "response": "Beta"}, "62": {"stimulus": 54, "trial": 62, "rt": 584, "response": "Alpha"}, "63": {"stimulus": 6, "trial": 63, "rt": 373, "response": "Alpha"}, "64": {"stimulus": 44, "trial": 64, "rt": 648, "response": "Alpha"}, "49": {"stimulus": 34, "trial": 49, "rt": 709, "response": "Alpha"}, "66": {"stimulus": 64, "trial": 66, "rt": 832, "response": "Alpha"}, "67": {"stimulus": 65, "trial": 67, "rt": 811, "response": "Alpha"}, "68": {"stimulus": 35, "trial": 68, "rt": 1955, "response": "Beta"}, "69": {"stimulus": 17, "trial": 69, "rt": 1206, "response": "Beta"}, "80": {"stimulus": 57, "trial": 80, "rt": 692, "response": "Alpha"}, "52": {"stimulus": 73, "trial": 52, "rt": 409, "response": "Alpha"}, "53": {"stimulus": 52, "trial": 53, "rt": 383, "response": "Alpha"}, "24": {"stimulus": 22, "trial": 24, "rt": 572, "response": "Alpha"}, "25": {"stimulus": 66, "trial": 25, "rt": 740, "response": "Alpha"}, "26": {"stimulus": 33, "trial": 26, "rt": 565, "response": "Alpha"}, "27": {"stimulus": 5, "trial": 27, "rt": 1728, "response": "Beta"}, "20": {"stimulus": 40, "trial": 20, "rt": 2647, "response": "Alpha"}, "21": {"stimulus": 55, "trial": 21, "rt": 960, "response": "Alpha"}, "22": {"stimulus": 72, "trial": 22, "rt": 1205, "response": "Beta"}, "23": {"stimulus": 60, "trial": 23, "rt": 1217, "response": "Alpha"}, "46": {"stimulus": 23, "trial": 46, "rt": 942, "response": "Beta"}, "47": {"stimulus": 3, "trial": 47, "rt": 1057, "response": "Beta"}, "44": {"stimulus": 53, "trial": 44, "rt": 832, "response": "Alpha"}, "45": {"stimulus": 56, "trial": 45, "rt": 682, "response": "Alpha"}, "28": {"stimulus": 0, "trial": 28, "rt": 868, "response": "Beta"}, "29": {"stimulus": 20, "trial": 29, "rt": 1224, "response": "Alpha"}, "40": {"stimulus": 76, "trial": 40, "rt": 1149, "response": "Beta"}, "41": {"stimulus": 10, "trial": 41, "rt": 762, "response": "Beta"}, "1": {"stimulus": 70, "trial": 1, "rt": 709, "response": "Alpha"}, "0": {"stimulus": 16, "trial": 0, "rt": 1262, "response": "Alpha"}, "3": {"stimulus": 31, "trial": 3, "rt": 676, "response": "Alpha"}, "2": {"stimulus": 46, "trial": 2, "rt": 1189, "response": "Alpha"}, "5": {"stimulus": 78, "trial": 5, "rt": 2768, "response": "Beta"}, "4": {"stimulus": 29, "trial": 4, "rt": 648, "response": "Alpha"}, "7": {"stimulus": 37, "trial": 7, "rt": 676, "response": "Alpha"}, "6": {"stimulus": 15, "trial": 6, "rt": 1219, "response": "Beta"}, "9": {"stimulus": 2, "trial": 9, "rt": 857, "response": "Beta"}, "8": {"stimulus": 12, "trial": 8, "rt": 1060, "response": "Beta"}, "78": {"stimulus": 39, "trial": 78, "rt": 4827, "response": "Alpha"}, "51": {"stimulus": 18, "trial": 51, "rt": 1299, "response": "Beta"}, "39": {"stimulus": 50, "trial": 39, "rt": 1075, "response": "Alpha"}, "65": {"stimulus": 21, "trial": 65, "rt": 935, "response": "Alpha"}, "76": {"stimulus": 43, "trial": 76, "rt": 1269, "response": "Alpha"}, "75": {"stimulus": 77, "trial": 75, "rt": 2332, "response": "Beta"}, "38": {"stimulus": 11, "trial": 38, "rt": 821, "response": "Beta"}, "73": {"stimulus": 41, "trial": 73, "rt": 814, "response": "Alpha"}, "72": {"stimulus": 75, "trial": 72, "rt": 1099, "response": "Beta"}, "71": {"stimulus": 30, "trial": 71, "rt": 699, "response": "Alpha"}, "70": {"stimulus": 47, "trial": 70, "rt": 1049, "response": "Alpha"}, "59": {"stimulus": 45, "trial": 59, "rt": 406, "response": "Alpha"}, "79": {"stimulus": 24, "trial": 79, "rt": 821, "response": "Beta"}, "58": {"stimulus": 62, "trial": 58, "rt": 526, "response": "Alpha"}, "11": {"stimulus": 14, "trial": 11, "rt": 1273, "response": "Beta"}, "10": {"stimulus": 51, "trial": 10, "rt": 1629, "response": "Alpha"}, "13": {"stimulus": 63, "trial": 13, "rt": 601, "response": "Alpha"}, "12": {"stimulus": 49, "trial": 12, "rt": 808, "response": "Alpha"}, "15": {"stimulus": 36, "trial": 15, "rt": 522, "response": "Alpha"}, "14": {"stimulus": 26, "trial": 14, "rt": 589, "response": "Alpha"}, "17": {"stimulus": 13, "trial": 17, "rt": 1570, "response": "Beta"}, "16": {"stimulus": 48, "trial": 16, "rt": 1249, "response": "Alpha"}, "19": {"stimulus": 79, "trial": 19, "rt": 839, "response": "Beta"}, "18": {"stimulus": 19, "trial": 18, "rt": 2842, "response": "Alpha"}, "31": {"stimulus": 69, "trial": 31, "rt": 804, "response": "Alpha"}, "30": {"stimulus": 32, "trial": 30, "rt": 638, "response": "Alpha"}, "37": {"stimulus": 9, "trial": 37, "rt": 2267, "response": "Beta"}, "36": {"stimulus": 25, "trial": 36, "rt": 1232, "response": "Alpha"}, "35": {"stimulus": 58, "trial": 35, "rt": 1277, "response": "Alpha"}, "34": {"stimulus": 1, "trial": 34, "rt": 6544, "response": "Beta"}, "33": {"stimulus": 71, "trial": 33, "rt": 781, "response": "Alpha"}, "55": {"stimulus": 8, "trial": 55, "rt": 1387, "response": "Beta"}, "74": {"stimulus": 4, "trial": 74, "rt": 1192, "response": "Beta"}, "32": {"stimulus": 42, "trial": 32, "rt": 696, "response": "Alpha"}, "57": {"stimulus": 38, "trial": 57, "rt": 1189, "response": "Alpha"}, "50": {"stimulus": 59, "trial": 50, "rt": 1054, "response": "Alpha"}}}