{"generation": {"1": {"stimulus": 35, "trial": 1, "rt": 8417}, "0": {"stimulus": 43, "trial": 0, "rt": 11907}, "3": {"stimulus": 8, "trial": 3, "rt": 8708}, "2": {"stimulus": 71, "trial": 2, "rt": 10312}}, "info": {"participant": 161, "exposed": true, "lab": false, "start": 1482182134899, "counterbalance": 3, "condition": "Middle", "browser": {"platform": "Win32", "userAgent": "Mozilla/5.0 (Windows NT 10.0; WOW64; rv:50.0) Gecko/20100101 Firefox/50.0"}}, "experiment": {"Paradigm": "TACL", "Stimuli": "Size-Color Squares", "Experiment": "Generating-Categories"}, "observation": {"11": {"stimulus": 30, "trial": 11, "rt": 1995}, "10": {"stimulus": 50, "trial": 10, "rt": 4465}, "1": {"stimulus": 50, "trial": 1, "rt": 2341}, "0": {"stimulus": 32, "trial": 0, "rt": 7232}, "3": {"stimulus": 30, "trial": 3, "rt": 1682}, "2": {"stimulus": 48, "trial": 2, "rt": 2546}, "5": {"stimulus": 32, "trial": 5, "rt": 3866}, "4": {"stimulus": 30, "trial": 4, "rt": 1531}, "7": {"stimulus": 50, "trial": 7, "rt": 2245}, "6": {"stimulus": 48, "trial": 6, "rt": 1698}, "9": {"stimulus": 48, "trial": 9, "rt": 2758}, "8": {"stimulus": 32, "trial": 8, "rt": 1884}}, "generalization": {"56": {"stimulus": 49, "trial": 56, "rt": 632, "response": "Alpha"}, "77": {"stimulus": 18, "trial": 77, "rt": 614, "response": "Alpha"}, "54": {"stimulus": 32, "trial": 54, "rt": 1102, "response": "Alpha"}, "42": {"stimulus": 75, "trial": 42, "rt": 1138, "response": "Alpha"}, "48": {"stimulus": 60, "trial": 48, "rt": 1613, "response": "Alpha"}, "43": {"stimulus": 17, "trial": 43, "rt": 1077, "response": "Beta"}, "60": {"stimulus": 74, "trial": 60, "rt": 624, "response": "Alpha"}, "61": {"stimulus": 35, "trial": 61, "rt": 1401, "response": "Beta"}, "62": {"stimulus": 70, "trial": 62, "rt": 746, "response": "Alpha"}, "63": {"stimulus": 71, "trial": 63, "rt": 856, "response": "Beta"}, "64": {"stimulus": 40, "trial": 64, "rt": 949, "response": "Alpha"}, "49": {"stimulus": 8, "trial": 49, "rt": 917, "response": "Beta"}, "66": {"stimulus": 64, "trial": 66, "rt": 802, "response": "Alpha"}, "67": {"stimulus": 63, "trial": 67, "rt": 828, "response": "Alpha"}, "68": {"stimulus": 67, "trial": 68, "rt": 1714, "response": "Alpha"}, "69": {"stimulus": 3, "trial": 69, "rt": 1484, "response": "Alpha"}, "80": {"stimulus": 30, "trial": 80, "rt": 604, "response": "Alpha"}, "52": {"stimulus": 57, "trial": 52, "rt": 1018, "response": "Alpha"}, "53": {"stimulus": 9, "trial": 53, "rt": 1036, "response": "Alpha"}, "24": {"stimulus": 29, "trial": 24, "rt": 750, "response": "Alpha"}, "25": {"stimulus": 13, "trial": 25, "rt": 817, "response": "Alpha"}, "26": {"stimulus": 54, "trial": 26, "rt": 1157, "response": "Alpha"}, "27": {"stimulus": 34, "trial": 27, "rt": 987, "response": "Beta"}, "20": {"stimulus": 14, "trial": 20, "rt": 2953, "response": "Alpha"}, "21": {"stimulus": 65, "trial": 21, "rt": 967, "response": "Alpha"}, "22": {"stimulus": 72, "trial": 22, "rt": 1490, "response": "Alpha"}, "23": {"stimulus": 1, "trial": 23, "rt": 1433, "response": "Alpha"}, "46": {"stimulus": 45, "trial": 46, "rt": 780, "response": "Alpha"}, "47": {"stimulus": 66, "trial": 47, "rt": 673, "response": "Alpha"}, "44": {"stimulus": 37, "trial": 44, "rt": 810, "response": "Alpha"}, "45": {"stimulus": 10, "trial": 45, "rt": 617, "response": "Alpha"}, "28": {"stimulus": 42, "trial": 28, "rt": 1364, "response": "Alpha"}, "29": {"stimulus": 61, "trial": 29, "rt": 1333, "response": "Beta"}, "40": {"stimulus": 77, "trial": 40, "rt": 712, "response": "Alpha"}, "41": {"stimulus": 69, "trial": 41, "rt": 6194, "response": "Alpha"}, "1": {"stimulus": 62, "trial": 1, "rt": 1926, "response": "Beta"}, "0": {"stimulus": 56, "trial": 0, "rt": 1480, "response": "Alpha"}, "3": {"stimulus": 53, "trial": 3, "rt": 950, "response": "Beta"}, "2": {"stimulus": 24, "trial": 2, "rt": 1372, "response": "Alpha"}, "5": {"stimulus": 78, "trial": 5, "rt": 2592, "response": "Alpha"}, "4": {"stimulus": 20, "trial": 4, "rt": 1032, "response": "Alpha"}, "7": {"stimulus": 5, "trial": 7, "rt": 1065, "response": "Alpha"}, "6": {"stimulus": 55, "trial": 6, "rt": 788, "response": "Alpha"}, "9": {"stimulus": 48, "trial": 9, "rt": 1050, "response": "Alpha"}, "8": {"stimulus": 11, "trial": 8, "rt": 748, "response": "Alpha"}, "78": {"stimulus": 27, "trial": 78, "rt": 542, "response": "Alpha"}, "51": {"stimulus": 33, "trial": 51, "rt": 802, "response": "Alpha"}, "39": {"stimulus": 22, "trial": 39, "rt": 699, "response": "Alpha"}, "65": {"stimulus": 41, "trial": 65, "rt": 869, "response": "Alpha"}, "76": {"stimulus": 59, "trial": 76, "rt": 447, "response": "Alpha"}, "75": {"stimulus": 68, "trial": 75, "rt": 722, "response": "Alpha"}, "38": {"stimulus": 4, "trial": 38, "rt": 754, "response": "Alpha"}, "73": {"stimulus": 76, "trial": 73, "rt": 716, "response": "Alpha"}, "72": {"stimulus": 2, "trial": 72, "rt": 594, "response": "Alpha"}, "71": {"stimulus": 15, "trial": 71, "rt": 1124, "response": "Alpha"}, "70": {"stimulus": 73, "trial": 70, "rt": 617, "response": "Alpha"}, "59": {"stimulus": 28, "trial": 59, "rt": 935, "response": "Alpha"}, "79": {"stimulus": 0, "trial": 79, "rt": 785, "response": "Alpha"}, "58": {"stimulus": 6, "trial": 58, "rt": 1386, "response": "Alpha"}, "11": {"stimulus": 52, "trial": 11, "rt": 1404, "response": "Beta"}, "10": {"stimulus": 43, "trial": 10, "rt": 1031, "response": "Beta"}, "13": {"stimulus": 50, "trial": 13, "rt": 1367, "response": "Alpha"}, "12": {"stimulus": 44, "trial": 12, "rt": 958, "response": "Beta"}, "15": {"stimulus": 58, "trial": 15, "rt": 716, "response": "Alpha"}, "14": {"stimulus": 39, "trial": 14, "rt": 914, "response": "Alpha"}, "17": {"stimulus": 26, "trial": 17, "rt": 1254, "response": "Beta"}, "16": {"stimulus": 51, "trial": 16, "rt": 5301, "response": "Alpha"}, "19": {"stimulus": 16, "trial": 19, "rt": 1110, "response": "Beta"}, "18": {"stimulus": 7, "trial": 18, "rt": 7162, "response": "Beta"}, "31": {"stimulus": 80, "trial": 31, "rt": 866, "response": "Beta"}, "30": {"stimulus": 47, "trial": 30, "rt": 1454, "response": "Alpha"}, "37": {"stimulus": 36, "trial": 37, "rt": 1160, "response": "Alpha"}, "36": {"stimulus": 79, "trial": 36, "rt": 1111, "response": "Beta"}, "35": {"stimulus": 21, "trial": 35, "rt": 803, "response": "Alpha"}, "34": {"stimulus": 46, "trial": 34, "rt": 530, "response": "Alpha"}, "33": {"stimulus": 12, "trial": 33, "rt": 608, "response": "Alpha"}, "55": {"stimulus": 19, "trial": 55, "rt": 680, "response": "Alpha"}, "74": {"stimulus": 25, "trial": 74, "rt": 1740, "response": "Beta"}, "32": {"stimulus": 23, "trial": 32, "rt": 890, "response": "Alpha"}, "57": {"stimulus": 38, "trial": 57, "rt": 715, "response": "Alpha"}, "50": {"stimulus": 31, "trial": 50, "rt": 1169, "response": "Alpha"}}}