{"generation": {"1": {"stimulus": 26, "trial": 1, "rt": 7497}, "0": {"stimulus": 35, "trial": 0, "rt": 6029}, "3": {"stimulus": 52, "trial": 3, "rt": 8583}, "2": {"stimulus": 17, "trial": 2, "rt": 2709}}, "info": {"finish": 1482182306448, "participant": 162, "exposed": true, "lab": false, "start": 1482182121158, "counterbalance": 7, "condition": "Middle", "browser": {"platform": "Win32", "userAgent": "Mozilla/5.0 (Windows NT 6.0; WOW64; rv:50.0) Gecko/20100101 Firefox/50.0"}}, "experiment": {"Paradigm": "TACL", "Stimuli": "Size-Color Squares", "Experiment": "Generating-Categories"}, "observation": {"11": {"stimulus": 50, "trial": 11, "rt": 747}, "10": {"stimulus": 30, "trial": 10, "rt": 819}, "1": {"stimulus": 30, "trial": 1, "rt": 1010}, "0": {"stimulus": 32, "trial": 0, "rt": 1566}, "3": {"stimulus": 48, "trial": 3, "rt": 912}, "2": {"stimulus": 50, "trial": 2, "rt": 984}, "5": {"stimulus": 48, "trial": 5, "rt": 1256}, "4": {"stimulus": 32, "trial": 4, "rt": 834}, "7": {"stimulus": 50, "trial": 7, "rt": 750}, "6": {"stimulus": 30, "trial": 6, "rt": 878}, "9": {"stimulus": 48, "trial": 9, "rt": 867}, "8": {"stimulus": 32, "trial": 8, "rt": 1811}}, "generalization": {"56": {"stimulus": 28, "trial": 56, "rt": 434, "response": "Alpha"}, "77": {"stimulus": 66, "trial": 77, "rt": 436, "response": "Alpha"}, "54": {"stimulus": 45, "trial": 54, "rt": 967, "response": "Alpha"}, "42": {"stimulus": 5, "trial": 42, "rt": 463, "response": "Beta"}, "48": {"stimulus": 72, "trial": 48, "rt": 773, "response": "Alpha"}, "43": {"stimulus": 6, "trial": 43, "rt": 671, "response": "Beta"}, "60": {"stimulus": 29, "trial": 60, "rt": 551, "response": "Alpha"}, "61": {"stimulus": 54, "trial": 61, "rt": 492, "response": "Alpha"}, "62": {"stimulus": 2, "trial": 62, "rt": 621, "response": "Alpha"}, "63": {"stimulus": 42, "trial": 63, "rt": 996, "response": "Alpha"}, "64": {"stimulus": 46, "trial": 64, "rt": 550, "response": "Alpha"}, "49": {"stimulus": 75, "trial": 49, "rt": 424, "response": "Alpha"}, "66": {"stimulus": 32, "trial": 66, "rt": 581, "response": "Alpha"}, "67": {"stimulus": 52, "trial": 67, "rt": 569, "response": "Beta"}, "68": {"stimulus": 78, "trial": 68, "rt": 502, "response": "Beta"}, "69": {"stimulus": 56, "trial": 69, "rt": 534, "response": "Alpha"}, "80": {"stimulus": 47, "trial": 80, "rt": 588, "response": "Alpha"}, "52": {"stimulus": 8, "trial": 52, "rt": 649, "response": "Beta"}, "53": {"stimulus": 26, "trial": 53, "rt": 459, "response": "Beta"}, "24": {"stimulus": 39, "trial": 24, "rt": 436, "response": "Alpha"}, "25": {"stimulus": 0, "trial": 25, "rt": 461, "response": "Alpha"}, "26": {"stimulus": 17, "trial": 26, "rt": 641, "response": "Beta"}, "27": {"stimulus": 18, "trial": 27, "rt": 667, "response": "Alpha"}, "20": {"stimulus": 77, "trial": 20, "rt": 1898, "response": "Alpha"}, "21": {"stimulus": 27, "trial": 21, "rt": 717, "response": "Alpha"}, "22": {"stimulus": 19, "trial": 22, "rt": 446, "response": "Alpha"}, "23": {"stimulus": 21, "trial": 23, "rt": 444, "response": "Alpha"}, "46": {"stimulus": 9, "trial": 46, "rt": 661, "response": "Alpha"}, "47": {"stimulus": 7, "trial": 47, "rt": 648, "response": "Beta"}, "44": {"stimulus": 11, "trial": 44, "rt": 710, "response": "Alpha"}, "45": {"stimulus": 40, "trial": 45, "rt": 541, "response": "Alpha"}, "28": {"stimulus": 50, "trial": 28, "rt": 722, "response": "Beta"}, "29": {"stimulus": 62, "trial": 29, "rt": 785, "response": "Beta"}, "40": {"stimulus": 36, "trial": 40, "rt": 577, "response": "Alpha"}, "41": {"stimulus": 16, "trial": 41, "rt": 547, "response": "Beta"}, "1": {"stimulus": 30, "trial": 1, "rt": 548, "response": "Alpha"}, "0": {"stimulus": 43, "trial": 0, "rt": 2893, "response": "Beta"}, "3": {"stimulus": 58, "trial": 3, "rt": 530, "response": "Alpha"}, "2": {"stimulus": 80, "trial": 2, "rt": 582, "response": "Beta"}, "5": {"stimulus": 22, "trial": 5, "rt": 540, "response": "Alpha"}, "4": {"stimulus": 34, "trial": 4, "rt": 432, "response": "Beta"}, "7": {"stimulus": 4, "trial": 7, "rt": 1105, "response": "Alpha"}, "6": {"stimulus": 41, "trial": 6, "rt": 800, "response": "Alpha"}, "9": {"stimulus": 49, "trial": 9, "rt": 456, "response": "Alpha"}, "8": {"stimulus": 23, "trial": 8, "rt": 542, "response": "Alpha"}, "78": {"stimulus": 24, "trial": 78, "rt": 587, "response": "Beta"}, "51": {"stimulus": 73, "trial": 51, "rt": 755, "response": "Alpha"}, "39": {"stimulus": 60, "trial": 39, "rt": 747, "response": "Beta"}, "65": {"stimulus": 51, "trial": 65, "rt": 601, "response": "Beta"}, "76": {"stimulus": 33, "trial": 76, "rt": 751, "response": "Beta"}, "75": {"stimulus": 1, "trial": 75, "rt": 474, "response": "Alpha"}, "38": {"stimulus": 57, "trial": 38, "rt": 681, "response": "Alpha"}, "73": {"stimulus": 55, "trial": 73, "rt": 444, "response": "Alpha"}, "72": {"stimulus": 10, "trial": 72, "rt": 842, "response": "Alpha"}, "71": {"stimulus": 25, "trial": 71, "rt": 739, "response": "Beta"}, "70": {"stimulus": 12, "trial": 70, "rt": 495, "response": "Alpha"}, "59": {"stimulus": 3, "trial": 59, "rt": 952, "response": "Alpha"}, "79": {"stimulus": 74, "trial": 79, "rt": 544, "response": "Alpha"}, "58": {"stimulus": 79, "trial": 58, "rt": 445, "response": "Beta"}, "11": {"stimulus": 35, "trial": 11, "rt": 454, "response": "Beta"}, "10": {"stimulus": 71, "trial": 10, "rt": 717, "response": "Beta"}, "13": {"stimulus": 31, "trial": 13, "rt": 878, "response": "Alpha"}, "12": {"stimulus": 14, "trial": 12, "rt": 750, "response": "Alpha"}, "15": {"stimulus": 44, "trial": 15, "rt": 766, "response": "Beta"}, "14": {"stimulus": 13, "trial": 14, "rt": 635, "response": "Alpha"}, "17": {"stimulus": 37, "trial": 17, "rt": 582, "response": "Alpha"}, "16": {"stimulus": 53, "trial": 16, "rt": 428, "response": "Beta"}, "19": {"stimulus": 61, "trial": 19, "rt": 769, "response": "Beta"}, "18": {"stimulus": 38, "trial": 18, "rt": 442, "response": "Alpha"}, "31": {"stimulus": 68, "trial": 31, "rt": 465, "response": "Beta"}, "30": {"stimulus": 69, "trial": 30, "rt": 639, "response": "Beta"}, "37": {"stimulus": 76, "trial": 37, "rt": 662, "response": "Alpha"}, "36": {"stimulus": 15, "trial": 36, "rt": 620, "response": "Beta"}, "35": {"stimulus": 48, "trial": 35, "rt": 557, "response": "Alpha"}, "34": {"stimulus": 65, "trial": 34, "rt": 632, "response": "Alpha"}, "33": {"stimulus": 59, "trial": 33, "rt": 836, "response": "Beta"}, "55": {"stimulus": 20, "trial": 55, "rt": 661, "response": "Alpha"}, "74": {"stimulus": 64, "trial": 74, "rt": 446, "response": "Alpha"}, "32": {"stimulus": 63, "trial": 32, "rt": 578, "response": "Alpha"}, "57": {"stimulus": 70, "trial": 57, "rt": 704, "response": "Beta"}, "50": {"stimulus": 67, "trial": 50, "rt": 493, "response": "Alpha"}}}