{"generation": {"1": {"stimulus": 45, "trial": 1, "rt": 4610}, "0": {"stimulus": 19, "trial": 0, "rt": 18306}, "3": {"stimulus": 0, "trial": 3, "rt": 3747}, "2": {"stimulus": 10, "trial": 2, "rt": 7739}}, "info": {"finish": 1482182419768, "participant": 163, "exposed": true, "lab": false, "start": 1482182174153, "counterbalance": 4, "condition": "Bottom", "browser": {"platform": "Win32", "userAgent": "Mozilla/5.0 (Windows NT 10.0; Win64; x64) AppleWebKit/537.36 (KHTML, like Gecko) Chrome/55.0.2883.87 Safari/537.36"}}, "experiment": {"Paradigm": "TACL", "Stimuli": "Size-Color Squares", "Experiment": "Generating-Categories"}, "observation": {"11": {"stimulus": 14, "trial": 11, "rt": 1174}, "10": {"stimulus": 32, "trial": 10, "rt": 696}, "1": {"stimulus": 12, "trial": 1, "rt": 2255}, "0": {"stimulus": 32, "trial": 0, "rt": 6823}, "3": {"stimulus": 30, "trial": 3, "rt": 1312}, "2": {"stimulus": 14, "trial": 2, "rt": 1448}, "5": {"stimulus": 30, "trial": 5, "rt": 953}, "4": {"stimulus": 32, "trial": 4, "rt": 899}, "7": {"stimulus": 14, "trial": 7, "rt": 936}, "6": {"stimulus": 12, "trial": 6, "rt": 950}, "9": {"stimulus": 30, "trial": 9, "rt": 921}, "8": {"stimulus": 12, "trial": 8, "rt": 904}}, "generalization": {"56": {"stimulus": 2, "trial": 56, "rt": 737, "response": "Alpha"}, "77": {"stimulus": 3, "trial": 77, "rt": 478, "response": "Alpha"}, "54": {"stimulus": 13, "trial": 54, "rt": 969, "response": "Alpha"}, "42": {"stimulus": 61, "trial": 42, "rt": 678, "response": "Beta"}, "48": {"stimulus": 4, "trial": 48, "rt": 1102, "response": "Alpha"}, "43": {"stimulus": 6, "trial": 43, "rt": 556, "response": "Beta"}, "60": {"stimulus": 32, "trial": 60, "rt": 561, "response": "Beta"}, "61": {"stimulus": 70, "trial": 61, "rt": 550, "response": "Beta"}, "62": {"stimulus": 34, "trial": 62, "rt": 485, "response": "Beta"}, "63": {"stimulus": 45, "trial": 63, "rt": 741, "response": "Alpha"}, "64": {"stimulus": 63, "trial": 64, "rt": 466, "response": "Alpha"}, "49": {"stimulus": 33, "trial": 49, "rt": 851, "response": "Beta"}, "66": {"stimulus": 23, "trial": 66, "rt": 3829, "response": "Alpha"}, "67": {"stimulus": 78, "trial": 67, "rt": 1248, "response": "Alpha"}, "68": {"stimulus": 75, "trial": 68, "rt": 861, "response": "Alpha"}, "69": {"stimulus": 27, "trial": 69, "rt": 881, "response": "Beta"}, "80": {"stimulus": 48, "trial": 80, "rt": 497, "response": "Alpha"}, "52": {"stimulus": 42, "trial": 52, "rt": 552, "response": "Beta"}, "53": {"stimulus": 20, "trial": 53, "rt": 975, "response": "Alpha"}, "24": {"stimulus": 59, "trial": 24, "rt": 705, "response": "Beta"}, "25": {"stimulus": 9, "trial": 25, "rt": 869, "response": "Alpha"}, "26": {"stimulus": 15, "trial": 26, "rt": 1243, "response": "Beta"}, "27": {"stimulus": 64, "trial": 27, "rt": 832, "response": "Alpha"}, "20": {"stimulus": 18, "trial": 20, "rt": 496, "response": "Alpha"}, "21": {"stimulus": 41, "trial": 21, "rt": 1210, "response": "Beta"}, "22": {"stimulus": 29, "trial": 22, "rt": 860, "response": "Alpha"}, "23": {"stimulus": 58, "trial": 23, "rt": 770, "response": "Alpha"}, "46": {"stimulus": 79, "trial": 46, "rt": 960, "response": "Beta"}, "47": {"stimulus": 53, "trial": 47, "rt": 741, "response": "Beta"}, "44": {"stimulus": 36, "trial": 44, "rt": 815, "response": "Alpha"}, "45": {"stimulus": 28, "trial": 45, "rt": 3552, "response": "Alpha"}, "28": {"stimulus": 77, "trial": 28, "rt": 811, "response": "Beta"}, "29": {"stimulus": 0, "trial": 29, "rt": 927, "response": "Alpha"}, "40": {"stimulus": 38, "trial": 40, "rt": 1293, "response": "Alpha"}, "41": {"stimulus": 76, "trial": 41, "rt": 1231, "response": "Alpha"}, "1": {"stimulus": 57, "trial": 1, "rt": 1339, "response": "Alpha"}, "0": {"stimulus": 65, "trial": 0, "rt": 3417, "response": "Alpha"}, "3": {"stimulus": 37, "trial": 3, "rt": 945, "response": "Alpha"}, "2": {"stimulus": 51, "trial": 2, "rt": 2914, "response": "Beta"}, "5": {"stimulus": 14, "trial": 5, "rt": 1059, "response": "Beta"}, "4": {"stimulus": 60, "trial": 4, "rt": 1273, "response": "Beta"}, "7": {"stimulus": 24, "trial": 7, "rt": 1063, "response": "Beta"}, "6": {"stimulus": 12, "trial": 6, "rt": 1683, "response": "Alpha"}, "9": {"stimulus": 74, "trial": 9, "rt": 1079, "response": "Alpha"}, "8": {"stimulus": 44, "trial": 8, "rt": 1019, "response": "Beta"}, "78": {"stimulus": 46, "trial": 78, "rt": 875, "response": "Beta"}, "51": {"stimulus": 19, "trial": 51, "rt": 721, "response": "Alpha"}, "39": {"stimulus": 31, "trial": 39, "rt": 1247, "response": "Alpha"}, "65": {"stimulus": 73, "trial": 65, "rt": 427, "response": "Alpha"}, "76": {"stimulus": 40, "trial": 76, "rt": 1141, "response": "Alpha"}, "75": {"stimulus": 26, "trial": 75, "rt": 1026, "response": "Beta"}, "38": {"stimulus": 25, "trial": 38, "rt": 854, "response": "Beta"}, "73": {"stimulus": 67, "trial": 73, "rt": 749, "response": "Alpha"}, "72": {"stimulus": 80, "trial": 72, "rt": 865, "response": "Beta"}, "71": {"stimulus": 50, "trial": 71, "rt": 637, "response": "Alpha"}, "70": {"stimulus": 22, "trial": 70, "rt": 932, "response": "Alpha"}, "59": {"stimulus": 35, "trial": 59, "rt": 603, "response": "Beta"}, "79": {"stimulus": 47, "trial": 79, "rt": 2471, "response": "Alpha"}, "58": {"stimulus": 39, "trial": 58, "rt": 509, "response": "Alpha"}, "11": {"stimulus": 54, "trial": 11, "rt": 2852, "response": "Alpha"}, "10": {"stimulus": 55, "trial": 10, "rt": 2458, "response": "Alpha"}, "13": {"stimulus": 21, "trial": 13, "rt": 1658, "response": "Alpha"}, "12": {"stimulus": 69, "trial": 12, "rt": 1630, "response": "Beta"}, "15": {"stimulus": 30, "trial": 15, "rt": 3474, "response": "Alpha"}, "14": {"stimulus": 7, "trial": 14, "rt": 868, "response": "Beta"}, "17": {"stimulus": 56, "trial": 17, "rt": 711, "response": "Alpha"}, "16": {"stimulus": 49, "trial": 16, "rt": 798, "response": "Alpha"}, "19": {"stimulus": 66, "trial": 19, "rt": 1116, "response": "Alpha"}, "18": {"stimulus": 10, "trial": 18, "rt": 1131, "response": "Alpha"}, "31": {"stimulus": 52, "trial": 31, "rt": 889, "response": "Beta"}, "30": {"stimulus": 16, "trial": 30, "rt": 1231, "response": "Beta"}, "37": {"stimulus": 1, "trial": 37, "rt": 893, "response": "Alpha"}, "36": {"stimulus": 68, "trial": 36, "rt": 1728, "response": "Beta"}, "35": {"stimulus": 11, "trial": 35, "rt": 1841, "response": "Alpha"}, "34": {"stimulus": 43, "trial": 34, "rt": 690, "response": "Beta"}, "33": {"stimulus": 62, "trial": 33, "rt": 765, "response": "Beta"}, "55": {"stimulus": 71, "trial": 55, "rt": 726, "response": "Beta"}, "74": {"stimulus": 72, "trial": 74, "rt": 828, "response": "Beta"}, "32": {"stimulus": 17, "trial": 32, "rt": 993, "response": "Beta"}, "57": {"stimulus": 5, "trial": 57, "rt": 816, "response": "Alpha"}, "50": {"stimulus": 8, "trial": 50, "rt": 826, "response": "Beta"}}}