{"generation": {"1": {"stimulus": 15, "trial": 1, "rt": 8765}, "0": {"stimulus": 61, "trial": 0, "rt": 20757}, "3": {"stimulus": 71, "trial": 3, "rt": 9731}, "2": {"stimulus": 10, "trial": 2, "rt": 7430}}, "info": {"finish": 1482182479466, "participant": 164, "exposed": true, "lab": false, "start": 1482182175219, "counterbalance": 7, "condition": "Middle", "browser": {"platform": "Win32", "userAgent": "Mozilla/5.0 (Windows NT 6.1; WOW64) AppleWebKit/537.36 (KHTML, like Gecko) Chrome/55.0.2883.87 Safari/537.36"}}, "experiment": {"Paradigm": "TACL", "Stimuli": "Size-Color Squares", "Experiment": "Generating-Categories"}, "observation": {"11": {"stimulus": 32, "trial": 11, "rt": 3733}, "10": {"stimulus": 30, "trial": 10, "rt": 2215}, "1": {"stimulus": 48, "trial": 1, "rt": 10866}, "0": {"stimulus": 32, "trial": 0, "rt": 4285}, "3": {"stimulus": 30, "trial": 3, "rt": 2482}, "2": {"stimulus": 50, "trial": 2, "rt": 7275}, "5": {"stimulus": 50, "trial": 5, "rt": 1916}, "4": {"stimulus": 30, "trial": 4, "rt": 2369}, "7": {"stimulus": 48, "trial": 7, "rt": 2194}, "6": {"stimulus": 32, "trial": 6, "rt": 1885}, "9": {"stimulus": 48, "trial": 9, "rt": 2023}, "8": {"stimulus": 50, "trial": 8, "rt": 3393}}, "generalization": {"56": {"stimulus": 62, "trial": 56, "rt": 948, "response": "Alpha"}, "77": {"stimulus": 65, "trial": 77, "rt": 919, "response": "Alpha"}, "54": {"stimulus": 21, "trial": 54, "rt": 1361, "response": "Beta"}, "42": {"stimulus": 45, "trial": 42, "rt": 8079, "response": "Beta"}, "48": {"stimulus": 58, "trial": 48, "rt": 851, "response": "Alpha"}, "43": {"stimulus": 64, "trial": 43, "rt": 1119, "response": "Alpha"}, "60": {"stimulus": 20, "trial": 60, "rt": 865, "response": "Beta"}, "61": {"stimulus": 1, "trial": 61, "rt": 789, "response": "Beta"}, "62": {"stimulus": 24, "trial": 62, "rt": 595, "response": "Beta"}, "63": {"stimulus": 79, "trial": 63, "rt": 1144, "response": "Alpha"}, "64": {"stimulus": 46, "trial": 64, "rt": 1432, "response": "Beta"}, "49": {"stimulus": 70, "trial": 49, "rt": 739, "response": "Alpha"}, "66": {"stimulus": 18, "trial": 66, "rt": 1153, "response": "Beta"}, "67": {"stimulus": 19, "trial": 67, "rt": 665, "response": "Beta"}, "68": {"stimulus": 40, "trial": 68, "rt": 570, "response": "Beta"}, "69": {"stimulus": 37, "trial": 69, "rt": 764, "response": "Beta"}, "80": {"stimulus": 15, "trial": 80, "rt": 863, "response": "Beta"}, "52": {"stimulus": 80, "trial": 52, "rt": 1293, "response": "Alpha"}, "53": {"stimulus": 41, "trial": 53, "rt": 853, "response": "Beta"}, "24": {"stimulus": 61, "trial": 24, "rt": 912, "response": "Alpha"}, "25": {"stimulus": 4, "trial": 25, "rt": 1094, "response": "Beta"}, "26": {"stimulus": 73, "trial": 26, "rt": 1803, "response": "Alpha"}, "27": {"stimulus": 42, "trial": 27, "rt": 4533, "response": "Beta"}, "20": {"stimulus": 5, "trial": 20, "rt": 1022, "response": "Beta"}, "21": {"stimulus": 17, "trial": 21, "rt": 1020, "response": "Beta"}, "22": {"stimulus": 16, "trial": 22, "rt": 1510, "response": "Beta"}, "23": {"stimulus": 71, "trial": 23, "rt": 1394, "response": "Alpha"}, "46": {"stimulus": 6, "trial": 46, "rt": 1004, "response": "Beta"}, "47": {"stimulus": 77, "trial": 47, "rt": 1128, "response": "Alpha"}, "44": {"stimulus": 52, "trial": 44, "rt": 1010, "response": "Beta"}, "45": {"stimulus": 72, "trial": 45, "rt": 1053, "response": "Alpha"}, "28": {"stimulus": 11, "trial": 28, "rt": 5732, "response": "Beta"}, "29": {"stimulus": 26, "trial": 29, "rt": 732, "response": "Beta"}, "40": {"stimulus": 8, "trial": 40, "rt": 997, "response": "Beta"}, "41": {"stimulus": 32, "trial": 41, "rt": 1697, "response": "Beta"}, "1": {"stimulus": 36, "trial": 1, "rt": 1636, "response": "Beta"}, "0": {"stimulus": 22, "trial": 0, "rt": 3384, "response": "Beta"}, "3": {"stimulus": 7, "trial": 3, "rt": 1110, "response": "Beta"}, "2": {"stimulus": 54, "trial": 2, "rt": 918, "response": "Alpha"}, "5": {"stimulus": 33, "trial": 5, "rt": 1076, "response": "Alpha"}, "4": {"stimulus": 29, "trial": 4, "rt": 1433, "response": "Beta"}, "7": {"stimulus": 59, "trial": 7, "rt": 997, "response": "Alpha"}, "6": {"stimulus": 44, "trial": 6, "rt": 1130, "response": "Beta"}, "9": {"stimulus": 50, "trial": 9, "rt": 1190, "response": "Beta"}, "8": {"stimulus": 39, "trial": 8, "rt": 1286, "response": "Beta"}, "78": {"stimulus": 35, "trial": 78, "rt": 872, "response": "Beta"}, "51": {"stimulus": 68, "trial": 51, "rt": 1169, "response": "Alpha"}, "39": {"stimulus": 14, "trial": 39, "rt": 929, "response": "Beta"}, "65": {"stimulus": 23, "trial": 65, "rt": 673, "response": "Beta"}, "76": {"stimulus": 9, "trial": 76, "rt": 953, "response": "Beta"}, "75": {"stimulus": 43, "trial": 75, "rt": 669, "response": "Beta"}, "38": {"stimulus": 76, "trial": 38, "rt": 3071, "response": "Alpha"}, "73": {"stimulus": 56, "trial": 73, "rt": 1284, "response": "Beta"}, "72": {"stimulus": 67, "trial": 72, "rt": 1232, "response": "Alpha"}, "71": {"stimulus": 66, "trial": 71, "rt": 950, "response": "Alpha"}, "70": {"stimulus": 69, "trial": 70, "rt": 1075, "response": "Alpha"}, "59": {"stimulus": 51, "trial": 59, "rt": 1207, "response": "Beta"}, "79": {"stimulus": 55, "trial": 79, "rt": 1062, "response": "Alpha"}, "58": {"stimulus": 57, "trial": 58, "rt": 1533, "response": "Alpha"}, "11": {"stimulus": 74, "trial": 11, "rt": 843, "response": "Alpha"}, "10": {"stimulus": 27, "trial": 10, "rt": 1093, "response": "Beta"}, "13": {"stimulus": 60, "trial": 13, "rt": 1433, "response": "Alpha"}, "12": {"stimulus": 75, "trial": 12, "rt": 889, "response": "Alpha"}, "15": {"stimulus": 53, "trial": 15, "rt": 1757, "response": "Beta"}, "14": {"stimulus": 34, "trial": 14, "rt": 988, "response": "Beta"}, "17": {"stimulus": 63, "trial": 17, "rt": 1035, "response": "Beta"}, "16": {"stimulus": 47, "trial": 16, "rt": 1611, "response": "Beta"}, "19": {"stimulus": 0, "trial": 19, "rt": 1216, "response": "Beta"}, "18": {"stimulus": 48, "trial": 18, "rt": 1439, "response": "Alpha"}, "31": {"stimulus": 3, "trial": 31, "rt": 711, "response": "Beta"}, "30": {"stimulus": 2, "trial": 30, "rt": 897, "response": "Beta"}, "37": {"stimulus": 30, "trial": 37, "rt": 1299, "response": "Beta"}, "36": {"stimulus": 49, "trial": 36, "rt": 1401, "response": "Beta"}, "35": {"stimulus": 10, "trial": 35, "rt": 997, "response": "Beta"}, "34": {"stimulus": 38, "trial": 34, "rt": 1471, "response": "Beta"}, "33": {"stimulus": 28, "trial": 33, "rt": 1122, "response": "Beta"}, "55": {"stimulus": 31, "trial": 55, "rt": 1054, "response": "Beta"}, "74": {"stimulus": 25, "trial": 74, "rt": 1402, "response": "Beta"}, "32": {"stimulus": 78, "trial": 32, "rt": 1985, "response": "Alpha"}, "57": {"stimulus": 13, "trial": 57, "rt": 929, "response": "Beta"}, "50": {"stimulus": 12, "trial": 50, "rt": 1022, "response": "Beta"}}}