{"generation": {"1": {"stimulus": 41, "trial": 1, "rt": 6635}, "0": {"stimulus": 32, "trial": 0, "rt": 8395}, "3": {"stimulus": 50, "trial": 3, "rt": 11212}, "2": {"stimulus": 40, "trial": 2, "rt": 20233}}, "info": {"finish": 1482182731491, "participant": 167, "exposed": true, "lab": false, "start": 1482182421707, "counterbalance": 7, "condition": "Middle", "browser": {"platform": "Win32", "userAgent": "Mozilla/5.0 (Windows NT 10.0; Win64; x64) AppleWebKit/537.36 (KHTML, like Gecko) Chrome/54.0.2840.99 Safari/537.36"}}, "experiment": {"Paradigm": "TACL", "Stimuli": "Size-Color Squares", "Experiment": "Generating-Categories"}, "observation": {"11": {"stimulus": 50, "trial": 11, "rt": 1113}, "10": {"stimulus": 48, "trial": 10, "rt": 783}, "1": {"stimulus": 48, "trial": 1, "rt": 1208}, "0": {"stimulus": 50, "trial": 0, "rt": 5518}, "3": {"stimulus": 32, "trial": 3, "rt": 1010}, "2": {"stimulus": 30, "trial": 2, "rt": 1070}, "5": {"stimulus": 32, "trial": 5, "rt": 735}, "4": {"stimulus": 48, "trial": 4, "rt": 3295}, "7": {"stimulus": 30, "trial": 7, "rt": 760}, "6": {"stimulus": 50, "trial": 6, "rt": 888}, "9": {"stimulus": 30, "trial": 9, "rt": 909}, "8": {"stimulus": 32, "trial": 8, "rt": 887}}, "generalization": {"56": {"stimulus": 8, "trial": 56, "rt": 717, "response": "Alpha"}, "77": {"stimulus": 73, "trial": 77, "rt": 993, "response": "Beta"}, "54": {"stimulus": 12, "trial": 54, "rt": 878, "response": "Alpha"}, "42": {"stimulus": 6, "trial": 42, "rt": 583, "response": "Alpha"}, "48": {"stimulus": 5, "trial": 48, "rt": 598, "response": "Alpha"}, "43": {"stimulus": 69, "trial": 43, "rt": 676, "response": "Alpha"}, "60": {"stimulus": 62, "trial": 60, "rt": 611, "response": "Alpha"}, "61": {"stimulus": 55, "trial": 61, "rt": 1096, "response": "Beta"}, "62": {"stimulus": 33, "trial": 62, "rt": 986, "response": "Alpha"}, "63": {"stimulus": 44, "trial": 63, "rt": 516, "response": "Alpha"}, "64": {"stimulus": 53, "trial": 64, "rt": 497, "response": "Alpha"}, "49": {"stimulus": 67, "trial": 49, "rt": 750, "response": "Alpha"}, "66": {"stimulus": 61, "trial": 66, "rt": 1168, "response": "Alpha"}, "67": {"stimulus": 74, "trial": 67, "rt": 1107, "response": "Beta"}, "68": {"stimulus": 63, "trial": 68, "rt": 2077, "response": "Beta"}, "69": {"stimulus": 2, "trial": 69, "rt": 1622, "response": "Beta"}, "80": {"stimulus": 1, "trial": 80, "rt": 791, "response": "Beta"}, "52": {"stimulus": 3, "trial": 52, "rt": 1059, "response": "Alpha"}, "53": {"stimulus": 24, "trial": 53, "rt": 603, "response": "Alpha"}, "24": {"stimulus": 14, "trial": 24, "rt": 743, "response": "Alpha"}, "25": {"stimulus": 70, "trial": 25, "rt": 753, "response": "Alpha"}, "26": {"stimulus": 68, "trial": 26, "rt": 823, "response": "Alpha"}, "27": {"stimulus": 13, "trial": 27, "rt": 21180, "response": "Alpha"}, "20": {"stimulus": 31, "trial": 20, "rt": 991, "response": "Alpha"}, "21": {"stimulus": 22, "trial": 21, "rt": 923, "response": "Alpha"}, "22": {"stimulus": 11, "trial": 22, "rt": 1320, "response": "Beta"}, "23": {"stimulus": 65, "trial": 23, "rt": 969, "response": "Beta"}, "46": {"stimulus": 76, "trial": 46, "rt": 784, "response": "Alpha"}, "47": {"stimulus": 51, "trial": 47, "rt": 512, "response": "Alpha"}, "44": {"stimulus": 50, "trial": 44, "rt": 935, "response": "Alpha"}, "45": {"stimulus": 52, "trial": 45, "rt": 1554, "response": "Alpha"}, "28": {"stimulus": 49, "trial": 28, "rt": 559, "response": "Alpha"}, "29": {"stimulus": 48, "trial": 29, "rt": 740, "response": "Alpha"}, "40": {"stimulus": 26, "trial": 40, "rt": 548, "response": "Alpha"}, "41": {"stimulus": 32, "trial": 41, "rt": 632, "response": "Alpha"}, "1": {"stimulus": 46, "trial": 1, "rt": 879, "response": "Beta"}, "0": {"stimulus": 29, "trial": 0, "rt": 2063, "response": "Beta"}, "3": {"stimulus": 15, "trial": 3, "rt": 42020, "response": "Alpha"}, "2": {"stimulus": 71, "trial": 2, "rt": 958, "response": "Alpha"}, "5": {"stimulus": 38, "trial": 5, "rt": 2566, "response": "Beta"}, "4": {"stimulus": 7, "trial": 4, "rt": 7780, "response": "Alpha"}, "7": {"stimulus": 75, "trial": 7, "rt": 917, "response": "Beta"}, "6": {"stimulus": 66, "trial": 6, "rt": 2875, "response": "Beta"}, "9": {"stimulus": 64, "trial": 9, "rt": 1233, "response": "Beta"}, "8": {"stimulus": 17, "trial": 8, "rt": 1038, "response": "Alpha"}, "78": {"stimulus": 21, "trial": 78, "rt": 1608, "response": "Alpha"}, "51": {"stimulus": 58, "trial": 51, "rt": 2066, "response": "Alpha"}, "39": {"stimulus": 25, "trial": 39, "rt": 820, "response": "Alpha"}, "65": {"stimulus": 39, "trial": 65, "rt": 1804, "response": "Alpha"}, "76": {"stimulus": 4, "trial": 76, "rt": 774, "response": "Alpha"}, "75": {"stimulus": 27, "trial": 75, "rt": 1159, "response": "Beta"}, "38": {"stimulus": 57, "trial": 38, "rt": 590, "response": "Alpha"}, "73": {"stimulus": 79, "trial": 73, "rt": 1087, "response": "Alpha"}, "72": {"stimulus": 45, "trial": 72, "rt": 3105, "response": "Beta"}, "71": {"stimulus": 41, "trial": 71, "rt": 9220, "response": "Alpha"}, "70": {"stimulus": 20, "trial": 70, "rt": 798, "response": "Beta"}, "59": {"stimulus": 56, "trial": 59, "rt": 19599, "response": "Beta"}, "79": {"stimulus": 16, "trial": 79, "rt": 884, "response": "Alpha"}, "58": {"stimulus": 23, "trial": 58, "rt": 1413, "response": "Alpha"}, "11": {"stimulus": 77, "trial": 11, "rt": 1630, "response": "Alpha"}, "10": {"stimulus": 60, "trial": 10, "rt": 564, "response": "Alpha"}, "13": {"stimulus": 54, "trial": 13, "rt": 879, "response": "Beta"}, "12": {"stimulus": 10, "trial": 12, "rt": 846, "response": "Beta"}, "15": {"stimulus": 80, "trial": 15, "rt": 757, "response": "Alpha"}, "14": {"stimulus": 40, "trial": 14, "rt": 745, "response": "Alpha"}, "17": {"stimulus": 42, "trial": 17, "rt": 701, "response": "Alpha"}, "16": {"stimulus": 30, "trial": 16, "rt": 1554, "response": "Alpha"}, "19": {"stimulus": 28, "trial": 19, "rt": 742, "response": "Beta"}, "18": {"stimulus": 36, "trial": 18, "rt": 752, "response": "Beta"}, "31": {"stimulus": 59, "trial": 31, "rt": 766, "response": "Alpha"}, "30": {"stimulus": 47, "trial": 30, "rt": 1709, "response": "Beta"}, "37": {"stimulus": 19, "trial": 37, "rt": 1027, "response": "Beta"}, "36": {"stimulus": 35, "trial": 36, "rt": 721, "response": "Alpha"}, "35": {"stimulus": 37, "trial": 35, "rt": 1373, "response": "Beta"}, "34": {"stimulus": 9, "trial": 34, "rt": 793, "response": "Beta"}, "33": {"stimulus": 78, "trial": 33, "rt": 681, "response": "Alpha"}, "55": {"stimulus": 0, "trial": 55, "rt": 1118, "response": "Beta"}, "74": {"stimulus": 34, "trial": 74, "rt": 583, "response": "Alpha"}, "32": {"stimulus": 72, "trial": 32, "rt": 863, "response": "Beta"}, "57": {"stimulus": 18, "trial": 57, "rt": 1418, "response": "Beta"}, "50": {"stimulus": 43, "trial": 50, "rt": 1514, "response": "Alpha"}}}