{"generation": {"1": {"stimulus": 79, "trial": 1, "rt": 7362}, "0": {"stimulus": 80, "trial": 0, "rt": 10537}, "3": {"stimulus": 78, "trial": 3, "rt": 7891}, "2": {"stimulus": 72, "trial": 2, "rt": 5371}}, "info": {"finish": 1482182638806, "participant": 168, "exposed": true, "lab": false, "start": 1482182440376, "counterbalance": 6, "condition": "Middle", "browser": {"platform": "Win32", "userAgent": "Mozilla/5.0 (Windows NT 10.0; WOW64) AppleWebKit/537.36 (KHTML, like Gecko) Chrome/55.0.2883.87 Safari/537.36"}}, "experiment": {"Paradigm": "TACL", "Stimuli": "Size-Color Squares", "Experiment": "Generating-Categories"}, "observation": {"11": {"stimulus": 48, "trial": 11, "rt": 1258}, "10": {"stimulus": 50, "trial": 10, "rt": 3051}, "1": {"stimulus": 50, "trial": 1, "rt": 1227}, "0": {"stimulus": 32, "trial": 0, "rt": 2857}, "3": {"stimulus": 48, "trial": 3, "rt": 1227}, "2": {"stimulus": 30, "trial": 2, "rt": 1228}, "5": {"stimulus": 32, "trial": 5, "rt": 1019}, "4": {"stimulus": 30, "trial": 4, "rt": 1045}, "7": {"stimulus": 50, "trial": 7, "rt": 1052}, "6": {"stimulus": 48, "trial": 6, "rt": 1361}, "9": {"stimulus": 32, "trial": 9, "rt": 915}, "8": {"stimulus": 30, "trial": 8, "rt": 897}}, "generalization": {"56": {"stimulus": 19, "trial": 56, "rt": 1123, "response": "Alpha"}, "77": {"stimulus": 74, "trial": 77, "rt": 483, "response": "Beta"}, "54": {"stimulus": 4, "trial": 54, "rt": 779, "response": "Alpha"}, "42": {"stimulus": 71, "trial": 42, "rt": 1194, "response": "Beta"}, "48": {"stimulus": 79, "trial": 48, "rt": 595, "response": "Beta"}, "43": {"stimulus": 8, "trial": 43, "rt": 971, "response": "Alpha"}, "60": {"stimulus": 43, "trial": 60, "rt": 739, "response": "Alpha"}, "61": {"stimulus": 73, "trial": 61, "rt": 699, "response": "Beta"}, "62": {"stimulus": 69, "trial": 62, "rt": 514, "response": "Beta"}, "63": {"stimulus": 34, "trial": 63, "rt": 763, "response": "Alpha"}, "64": {"stimulus": 65, "trial": 64, "rt": 842, "response": "Beta"}, "49": {"stimulus": 22, "trial": 49, "rt": 1323, "response": "Alpha"}, "66": {"stimulus": 48, "trial": 66, "rt": 1858, "response": "Beta"}, "67": {"stimulus": 47, "trial": 67, "rt": 969, "response": "Beta"}, "68": {"stimulus": 72, "trial": 68, "rt": 490, "response": "Beta"}, "69": {"stimulus": 52, "trial": 69, "rt": 491, "response": "Beta"}, "80": {"stimulus": 15, "trial": 80, "rt": 708, "response": "Alpha"}, "52": {"stimulus": 32, "trial": 52, "rt": 907, "response": "Alpha"}, "53": {"stimulus": 29, "trial": 53, "rt": 1419, "response": "Alpha"}, "24": {"stimulus": 41, "trial": 24, "rt": 995, "response": "Beta"}, "25": {"stimulus": 21, "trial": 25, "rt": 1018, "response": "Alpha"}, "26": {"stimulus": 10, "trial": 26, "rt": 963, "response": "Alpha"}, "27": {"stimulus": 24, "trial": 27, "rt": 931, "response": "Beta"}, "20": {"stimulus": 17, "trial": 20, "rt": 1548, "response": "Alpha"}, "21": {"stimulus": 26, "trial": 21, "rt": 6283, "response": "Beta"}, "22": {"stimulus": 20, "trial": 22, "rt": 1276, "response": "Alpha"}, "23": {"stimulus": 2, "trial": 23, "rt": 683, "response": "Alpha"}, "46": {"stimulus": 25, "trial": 46, "rt": 698, "response": "Alpha"}, "47": {"stimulus": 59, "trial": 47, "rt": 1418, "response": "Beta"}, "44": {"stimulus": 58, "trial": 44, "rt": 1003, "response": "Beta"}, "45": {"stimulus": 44, "trial": 45, "rt": 1050, "response": "Alpha"}, "28": {"stimulus": 45, "trial": 28, "rt": 691, "response": "Beta"}, "29": {"stimulus": 9, "trial": 29, "rt": 875, "response": "Alpha"}, "40": {"stimulus": 12, "trial": 40, "rt": 1042, "response": "Alpha"}, "41": {"stimulus": 11, "trial": 41, "rt": 611, "response": "Alpha"}, "1": {"stimulus": 53, "trial": 1, "rt": 923, "response": "Beta"}, "0": {"stimulus": 36, "trial": 0, "rt": 1529, "response": "Beta"}, "3": {"stimulus": 77, "trial": 3, "rt": 1035, "response": "Beta"}, "2": {"stimulus": 51, "trial": 2, "rt": 1364, "response": "Alpha"}, "5": {"stimulus": 27, "trial": 5, "rt": 1051, "response": "Alpha"}, "4": {"stimulus": 63, "trial": 4, "rt": 1332, "response": "Beta"}, "7": {"stimulus": 14, "trial": 7, "rt": 667, "response": "Alpha"}, "6": {"stimulus": 40, "trial": 6, "rt": 794, "response": "Alpha"}, "9": {"stimulus": 30, "trial": 9, "rt": 1379, "response": "Alpha"}, "8": {"stimulus": 38, "trial": 8, "rt": 1571, "response": "Beta"}, "78": {"stimulus": 0, "trial": 78, "rt": 1027, "response": "Alpha"}, "51": {"stimulus": 62, "trial": 51, "rt": 506, "response": "Beta"}, "39": {"stimulus": 61, "trial": 39, "rt": 691, "response": "Beta"}, "65": {"stimulus": 46, "trial": 65, "rt": 483, "response": "Beta"}, "76": {"stimulus": 37, "trial": 76, "rt": 674, "response": "Beta"}, "75": {"stimulus": 67, "trial": 75, "rt": 1019, "response": "Beta"}, "38": {"stimulus": 55, "trial": 38, "rt": 667, "response": "Beta"}, "73": {"stimulus": 70, "trial": 73, "rt": 721, "response": "Beta"}, "72": {"stimulus": 80, "trial": 72, "rt": 539, "response": "Beta"}, "71": {"stimulus": 50, "trial": 71, "rt": 466, "response": "Beta"}, "70": {"stimulus": 76, "trial": 70, "rt": 483, "response": "Beta"}, "59": {"stimulus": 7, "trial": 59, "rt": 819, "response": "Alpha"}, "79": {"stimulus": 42, "trial": 79, "rt": 1267, "response": "Beta"}, "58": {"stimulus": 75, "trial": 58, "rt": 939, "response": "Beta"}, "11": {"stimulus": 31, "trial": 11, "rt": 963, "response": "Alpha"}, "10": {"stimulus": 60, "trial": 10, "rt": 1042, "response": "Beta"}, "13": {"stimulus": 18, "trial": 13, "rt": 1162, "response": "Alpha"}, "12": {"stimulus": 68, "trial": 12, "rt": 963, "response": "Beta"}, "15": {"stimulus": 3, "trial": 15, "rt": 802, "response": "Alpha"}, "14": {"stimulus": 1, "trial": 14, "rt": 731, "response": "Alpha"}, "17": {"stimulus": 35, "trial": 17, "rt": 970, "response": "Alpha"}, "16": {"stimulus": 39, "trial": 16, "rt": 995, "response": "Beta"}, "19": {"stimulus": 64, "trial": 19, "rt": 1139, "response": "Beta"}, "18": {"stimulus": 5, "trial": 18, "rt": 1434, "response": "Alpha"}, "31": {"stimulus": 33, "trial": 31, "rt": 924, "response": "Alpha"}, "30": {"stimulus": 54, "trial": 30, "rt": 946, "response": "Beta"}, "37": {"stimulus": 78, "trial": 37, "rt": 1211, "response": "Beta"}, "36": {"stimulus": 56, "trial": 36, "rt": 756, "response": "Beta"}, "35": {"stimulus": 6, "trial": 35, "rt": 625, "response": "Alpha"}, "34": {"stimulus": 16, "trial": 34, "rt": 595, "response": "Alpha"}, "33": {"stimulus": 23, "trial": 33, "rt": 1242, "response": "Alpha"}, "55": {"stimulus": 66, "trial": 55, "rt": 1060, "response": "Beta"}, "74": {"stimulus": 13, "trial": 74, "rt": 923, "response": "Alpha"}, "32": {"stimulus": 57, "trial": 32, "rt": 890, "response": "Beta"}, "57": {"stimulus": 28, "trial": 57, "rt": 531, "response": "Alpha"}, "50": {"stimulus": 49, "trial": 50, "rt": 1020, "response": "Beta"}}}