{"generation": {"1": {"stimulus": 70, "trial": 1, "rt": 6232}, "0": {"stimulus": 80, "trial": 0, "rt": 6865}, "3": {"stimulus": 79, "trial": 3, "rt": 11195}, "2": {"stimulus": 72, "trial": 2, "rt": 2139}}, "info": {"finish": 1482174972242, "participant": 17, "exposed": true, "lab": false, "start": 1482174408732, "counterbalance": 1, "condition": "Bottom", "browser": {"platform": "Win32", "userAgent": "Mozilla/5.0 (Windows NT 6.1; Win64; x64) AppleWebKit/537.36 (KHTML, like Gecko) Chrome/55.0.2883.87 Safari/537.36"}}, "experiment": {"Paradigm": "TACL", "Stimuli": "Size-Color Squares", "Experiment": "Generating-Categories"}, "observation": {"11": {"stimulus": 14, "trial": 11, "rt": 915}, "10": {"stimulus": 30, "trial": 10, "rt": 830}, "1": {"stimulus": 12, "trial": 1, "rt": 1170}, "0": {"stimulus": 14, "trial": 0, "rt": 1665}, "3": {"stimulus": 32, "trial": 3, "rt": 1086}, "2": {"stimulus": 30, "trial": 2, "rt": 954}, "5": {"stimulus": 30, "trial": 5, "rt": 858}, "4": {"stimulus": 32, "trial": 4, "rt": 1319}, "7": {"stimulus": 14, "trial": 7, "rt": 884}, "6": {"stimulus": 12, "trial": 6, "rt": 884}, "9": {"stimulus": 12, "trial": 9, "rt": 936}, "8": {"stimulus": 32, "trial": 8, "rt": 210161}}, "generalization": {"56": {"stimulus": 10, "trial": 56, "rt": 366, "response": "Alpha"}, "77": {"stimulus": 66, "trial": 77, "rt": 627, "response": "Beta"}, "54": {"stimulus": 27, "trial": 54, "rt": 771, "response": "Alpha"}, "42": {"stimulus": 73, "trial": 42, "rt": 691, "response": "Beta"}, "48": {"stimulus": 9, "trial": 48, "rt": 474, "response": "Alpha"}, "43": {"stimulus": 0, "trial": 43, "rt": 626, "response": "Alpha"}, "60": {"stimulus": 11, "trial": 60, "rt": 451, "response": "Alpha"}, "61": {"stimulus": 43, "trial": 61, "rt": 387, "response": "Alpha"}, "62": {"stimulus": 56, "trial": 62, "rt": 1147, "response": "Alpha"}, "63": {"stimulus": 45, "trial": 63, "rt": 547, "response": "Alpha"}, "64": {"stimulus": 41, "trial": 64, "rt": 419, "response": "Alpha"}, "49": {"stimulus": 17, "trial": 49, "rt": 468, "response": "Alpha"}, "66": {"stimulus": 19, "trial": 66, "rt": 404, "response": "Alpha"}, "67": {"stimulus": 60, "trial": 67, "rt": 523, "response": "Alpha"}, "68": {"stimulus": 21, "trial": 68, "rt": 403, "response": "Alpha"}, "69": {"stimulus": 15, "trial": 69, "rt": 378, "response": "Alpha"}, "80": {"stimulus": 6, "trial": 80, "rt": 379, "response": "Alpha"}, "52": {"stimulus": 77, "trial": 52, "rt": 562, "response": "Beta"}, "53": {"stimulus": 35, "trial": 53, "rt": 634, "response": "Alpha"}, "24": {"stimulus": 42, "trial": 24, "rt": 507, "response": "Alpha"}, "25": {"stimulus": 32, "trial": 25, "rt": 770, "response": "Alpha"}, "26": {"stimulus": 53, "trial": 26, "rt": 548, "response": "Alpha"}, "27": {"stimulus": 13, "trial": 27, "rt": 635, "response": "Alpha"}, "20": {"stimulus": 44, "trial": 20, "rt": 6194, "response": "Alpha"}, "21": {"stimulus": 75, "trial": 21, "rt": 659, "response": "Beta"}, "22": {"stimulus": 57, "trial": 22, "rt": 1003, "response": "Alpha"}, "23": {"stimulus": 14, "trial": 23, "rt": 402, "response": "Alpha"}, "46": {"stimulus": 52, "trial": 46, "rt": 475, "response": "Alpha"}, "47": {"stimulus": 29, "trial": 47, "rt": 475, "response": "Alpha"}, "44": {"stimulus": 50, "trial": 44, "rt": 532, "response": "Alpha"}, "45": {"stimulus": 26, "trial": 45, "rt": 443, "response": "Alpha"}, "28": {"stimulus": 16, "trial": 28, "rt": 418, "response": "Alpha"}, "29": {"stimulus": 2, "trial": 29, "rt": 444, "response": "Alpha"}, "40": {"stimulus": 49, "trial": 40, "rt": 499, "response": "Alpha"}, "41": {"stimulus": 68, "trial": 41, "rt": 851, "response": "Beta"}, "1": {"stimulus": 22, "trial": 1, "rt": 931, "response": "Alpha"}, "0": {"stimulus": 47, "trial": 0, "rt": 3560, "response": "Alpha"}, "3": {"stimulus": 63, "trial": 3, "rt": 714, "response": "Beta"}, "2": {"stimulus": 51, "trial": 2, "rt": 642, "response": "Alpha"}, "5": {"stimulus": 64, "trial": 5, "rt": 618, "response": "Beta"}, "4": {"stimulus": 38, "trial": 4, "rt": 666, "response": "Alpha"}, "7": {"stimulus": 59, "trial": 7, "rt": 899, "response": "Alpha"}, "6": {"stimulus": 28, "trial": 6, "rt": 588, "response": "Alpha"}, "9": {"stimulus": 31, "trial": 9, "rt": 588, "response": "Alpha"}, "8": {"stimulus": 67, "trial": 8, "rt": 593, "response": "Beta"}, "78": {"stimulus": 33, "trial": 78, "rt": 635, "response": "Alpha"}, "51": {"stimulus": 78, "trial": 51, "rt": 738, "response": "Beta"}, "39": {"stimulus": 8, "trial": 39, "rt": 530, "response": "Alpha"}, "65": {"stimulus": 5, "trial": 65, "rt": 393, "response": "Alpha"}, "76": {"stimulus": 3, "trial": 76, "rt": 507, "response": "Alpha"}, "75": {"stimulus": 61, "trial": 75, "rt": 1091, "response": "Beta"}, "38": {"stimulus": 76, "trial": 38, "rt": 859, "response": "Beta"}, "73": {"stimulus": 65, "trial": 73, "rt": 602, "response": "Beta"}, "72": {"stimulus": 70, "trial": 72, "rt": 715, "response": "Beta"}, "71": {"stimulus": 37, "trial": 71, "rt": 491, "response": "Alpha"}, "70": {"stimulus": 23, "trial": 70, "rt": 434, "response": "Alpha"}, "59": {"stimulus": 24, "trial": 59, "rt": 347, "response": "Alpha"}, "79": {"stimulus": 4, "trial": 79, "rt": 443, "response": "Alpha"}, "58": {"stimulus": 20, "trial": 58, "rt": 387, "response": "Alpha"}, "11": {"stimulus": 1, "trial": 11, "rt": 467, "response": "Alpha"}, "10": {"stimulus": 25, "trial": 10, "rt": 475, "response": "Alpha"}, "13": {"stimulus": 69, "trial": 13, "rt": 923, "response": "Beta"}, "12": {"stimulus": 79, "trial": 12, "rt": 931, "response": "Beta"}, "15": {"stimulus": 72, "trial": 15, "rt": 706, "response": "Beta"}, "14": {"stimulus": 12, "trial": 14, "rt": 667, "response": "Alpha"}, "17": {"stimulus": 71, "trial": 17, "rt": 10323, "response": "Beta"}, "16": {"stimulus": 39, "trial": 16, "rt": 698, "response": "Alpha"}, "19": {"stimulus": 30, "trial": 19, "rt": 955, "response": "Alpha"}, "18": {"stimulus": 80, "trial": 18, "rt": 651, "response": "Beta"}, "31": {"stimulus": 7, "trial": 31, "rt": 731, "response": "Beta"}, "30": {"stimulus": 18, "trial": 30, "rt": 395, "response": "Alpha"}, "37": {"stimulus": 62, "trial": 37, "rt": 539, "response": "Alpha"}, "36": {"stimulus": 48, "trial": 36, "rt": 458, "response": "Alpha"}, "35": {"stimulus": 34, "trial": 35, "rt": 1003, "response": "Alpha"}, "34": {"stimulus": 74, "trial": 34, "rt": 706, "response": "Beta"}, "33": {"stimulus": 46, "trial": 33, "rt": 419, "response": "Alpha"}, "55": {"stimulus": 54, "trial": 55, "rt": 491, "response": "Alpha"}, "74": {"stimulus": 36, "trial": 74, "rt": 651, "response": "Alpha"}, "32": {"stimulus": 55, "trial": 32, "rt": 235, "response": "Alpha"}, "57": {"stimulus": 58, "trial": 57, "rt": 512, "response": "Alpha"}, "50": {"stimulus": 40, "trial": 50, "rt": 451, "response": "Alpha"}}}