{"generation": {"1": {"stimulus": 37, "trial": 1, "rt": 6755}, "0": {"stimulus": 0, "trial": 0, "rt": 12888}, "3": {"stimulus": 55, "trial": 3, "rt": 8859}, "2": {"stimulus": 36, "trial": 2, "rt": 9695}}, "info": {"finish": 1482182696714, "participant": 170, "exposed": true, "lab": false, "start": 1482182465148, "counterbalance": 7, "condition": "Middle", "browser": {"platform": "Win32", "userAgent": "Mozilla/5.0 (Windows NT 10.0; Win64; x64) AppleWebKit/537.36 (KHTML, like Gecko) Chrome/55.0.2883.87 Safari/537.36"}}, "experiment": {"Paradigm": "TACL", "Stimuli": "Size-Color Squares", "Experiment": "Generating-Categories"}, "observation": {"11": {"stimulus": 30, "trial": 11, "rt": 1262}, "10": {"stimulus": 32, "trial": 10, "rt": 2732}, "1": {"stimulus": 48, "trial": 1, "rt": 1699}, "0": {"stimulus": 50, "trial": 0, "rt": 2916}, "3": {"stimulus": 32, "trial": 3, "rt": 1445}, "2": {"stimulus": 30, "trial": 2, "rt": 1415}, "5": {"stimulus": 48, "trial": 5, "rt": 1159}, "4": {"stimulus": 32, "trial": 4, "rt": 1854}, "7": {"stimulus": 30, "trial": 7, "rt": 1680}, "6": {"stimulus": 50, "trial": 6, "rt": 1160}, "9": {"stimulus": 48, "trial": 9, "rt": 1987}, "8": {"stimulus": 50, "trial": 8, "rt": 1699}}, "generalization": {"56": {"stimulus": 2, "trial": 56, "rt": 1178, "response": "Alpha"}, "77": {"stimulus": 15, "trial": 77, "rt": 908, "response": "Alpha"}, "54": {"stimulus": 39, "trial": 54, "rt": 1053, "response": "Alpha"}, "42": {"stimulus": 36, "trial": 42, "rt": 1374, "response": "Beta"}, "48": {"stimulus": 22, "trial": 48, "rt": 1010, "response": "Alpha"}, "43": {"stimulus": 47, "trial": 43, "rt": 1623, "response": "Alpha"}, "60": {"stimulus": 12, "trial": 60, "rt": 712, "response": "Alpha"}, "61": {"stimulus": 70, "trial": 61, "rt": 817, "response": "Alpha"}, "62": {"stimulus": 53, "trial": 62, "rt": 739, "response": "Alpha"}, "63": {"stimulus": 55, "trial": 63, "rt": 2362, "response": "Beta"}, "64": {"stimulus": 6, "trial": 64, "rt": 3141, "response": "Alpha"}, "49": {"stimulus": 68, "trial": 49, "rt": 744, "response": "Alpha"}, "66": {"stimulus": 64, "trial": 66, "rt": 1425, "response": "Beta"}, "67": {"stimulus": 18, "trial": 67, "rt": 855, "response": "Beta"}, "68": {"stimulus": 37, "trial": 68, "rt": 824, "response": "Beta"}, "69": {"stimulus": 0, "trial": 69, "rt": 777, "response": "Beta"}, "80": {"stimulus": 14, "trial": 80, "rt": 1262, "response": "Alpha"}, "52": {"stimulus": 35, "trial": 52, "rt": 930, "response": "Alpha"}, "53": {"stimulus": 52, "trial": 53, "rt": 761, "response": "Alpha"}, "24": {"stimulus": 43, "trial": 24, "rt": 815, "response": "Alpha"}, "25": {"stimulus": 29, "trial": 25, "rt": 1170, "response": "Alpha"}, "26": {"stimulus": 45, "trial": 26, "rt": 1409, "response": "Beta"}, "27": {"stimulus": 5, "trial": 27, "rt": 2578, "response": "Alpha"}, "20": {"stimulus": 74, "trial": 20, "rt": 2042, "response": "Alpha"}, "21": {"stimulus": 62, "trial": 21, "rt": 1343, "response": "Alpha"}, "22": {"stimulus": 11, "trial": 22, "rt": 1820, "response": "Alpha"}, "23": {"stimulus": 58, "trial": 23, "rt": 957, "response": "Alpha"}, "46": {"stimulus": 59, "trial": 46, "rt": 788, "response": "Alpha"}, "47": {"stimulus": 34, "trial": 47, "rt": 761, "response": "Alpha"}, "44": {"stimulus": 7, "trial": 44, "rt": 1627, "response": "Alpha"}, "45": {"stimulus": 48, "trial": 45, "rt": 971, "response": "Alpha"}, "28": {"stimulus": 57, "trial": 28, "rt": 1056, "response": "Alpha"}, "29": {"stimulus": 27, "trial": 29, "rt": 1336, "response": "Beta"}, "40": {"stimulus": 61, "trial": 40, "rt": 918, "response": "Alpha"}, "41": {"stimulus": 71, "trial": 41, "rt": 820, "response": "Alpha"}, "1": {"stimulus": 77, "trial": 1, "rt": 1235, "response": "Alpha"}, "0": {"stimulus": 30, "trial": 0, "rt": 2344, "response": "Alpha"}, "3": {"stimulus": 72, "trial": 3, "rt": 1606, "response": "Beta"}, "2": {"stimulus": 17, "trial": 2, "rt": 1439, "response": "Alpha"}, "5": {"stimulus": 23, "trial": 5, "rt": 1003, "response": "Alpha"}, "4": {"stimulus": 3, "trial": 4, "rt": 1592, "response": "Alpha"}, "7": {"stimulus": 79, "trial": 7, "rt": 868, "response": "Alpha"}, "6": {"stimulus": 25, "trial": 6, "rt": 1038, "response": "Alpha"}, "9": {"stimulus": 38, "trial": 9, "rt": 1502, "response": "Beta"}, "8": {"stimulus": 69, "trial": 8, "rt": 821, "response": "Alpha"}, "78": {"stimulus": 73, "trial": 78, "rt": 1609, "response": "Beta"}, "51": {"stimulus": 80, "trial": 51, "rt": 848, "response": "Alpha"}, "39": {"stimulus": 13, "trial": 39, "rt": 1320, "response": "Alpha"}, "65": {"stimulus": 4, "trial": 65, "rt": 955, "response": "Alpha"}, "76": {"stimulus": 40, "trial": 76, "rt": 945, "response": "Alpha"}, "75": {"stimulus": 16, "trial": 75, "rt": 805, "response": "Alpha"}, "38": {"stimulus": 46, "trial": 38, "rt": 1829, "response": "Beta"}, "73": {"stimulus": 75, "trial": 73, "rt": 1178, "response": "Alpha"}, "72": {"stimulus": 44, "trial": 72, "rt": 994, "response": "Alpha"}, "71": {"stimulus": 76, "trial": 71, "rt": 1007, "response": "Alpha"}, "70": {"stimulus": 67, "trial": 70, "rt": 1357, "response": "Alpha"}, "59": {"stimulus": 66, "trial": 59, "rt": 788, "response": "Alpha"}, "79": {"stimulus": 10, "trial": 79, "rt": 833, "response": "Beta"}, "58": {"stimulus": 31, "trial": 58, "rt": 1321, "response": "Alpha"}, "11": {"stimulus": 50, "trial": 11, "rt": 809, "response": "Alpha"}, "10": {"stimulus": 51, "trial": 10, "rt": 1275, "response": "Alpha"}, "13": {"stimulus": 1, "trial": 13, "rt": 849, "response": "Beta"}, "12": {"stimulus": 63, "trial": 12, "rt": 1320, "response": "Beta"}, "15": {"stimulus": 20, "trial": 15, "rt": 1609, "response": "Alpha"}, "14": {"stimulus": 49, "trial": 14, "rt": 1308, "response": "Alpha"}, "17": {"stimulus": 24, "trial": 17, "rt": 1156, "response": "Alpha"}, "16": {"stimulus": 19, "trial": 16, "rt": 1419, "response": "Beta"}, "19": {"stimulus": 41, "trial": 19, "rt": 1178, "response": "Alpha"}, "18": {"stimulus": 56, "trial": 18, "rt": 1424, "response": "Beta"}, "31": {"stimulus": 60, "trial": 31, "rt": 959, "response": "Alpha"}, "30": {"stimulus": 42, "trial": 30, "rt": 1271, "response": "Alpha"}, "37": {"stimulus": 21, "trial": 37, "rt": 984, "response": "Alpha"}, "36": {"stimulus": 32, "trial": 36, "rt": 1045, "response": "Alpha"}, "35": {"stimulus": 8, "trial": 35, "rt": 1306, "response": "Alpha"}, "34": {"stimulus": 9, "trial": 34, "rt": 1432, "response": "Beta"}, "33": {"stimulus": 78, "trial": 33, "rt": 820, "response": "Alpha"}, "55": {"stimulus": 65, "trial": 55, "rt": 1073, "response": "Alpha"}, "74": {"stimulus": 33, "trial": 74, "rt": 808, "response": "Alpha"}, "32": {"stimulus": 26, "trial": 32, "rt": 788, "response": "Alpha"}, "57": {"stimulus": 54, "trial": 57, "rt": 1454, "response": "Beta"}, "50": {"stimulus": 28, "trial": 50, "rt": 1054, "response": "Alpha"}}}