{"generation": {"1": {"stimulus": 8, "trial": 1, "rt": 5066}, "0": {"stimulus": 0, "trial": 0, "rt": 11717}, "3": {"stimulus": 80, "trial": 3, "rt": 5409}, "2": {"stimulus": 72, "trial": 2, "rt": 4876}}, "info": {"finish": 1482182865776, "participant": 171, "exposed": true, "lab": false, "start": 1482182550041, "counterbalance": 0, "condition": "Middle", "browser": {"platform": "MacIntel", "userAgent": "Mozilla/5.0 (Macintosh; Intel Mac OS X 10_12_1) AppleWebKit/537.36 (KHTML, like Gecko) Chrome/55.0.2883.95 Safari/537.36"}}, "experiment": {"Paradigm": "TACL", "Stimuli": "Size-Color Squares", "Experiment": "Generating-Categories"}, "observation": {"11": {"stimulus": 32, "trial": 11, "rt": 1084}, "10": {"stimulus": 50, "trial": 10, "rt": 1140}, "1": {"stimulus": 30, "trial": 1, "rt": 1314}, "0": {"stimulus": 50, "trial": 0, "rt": 2034}, "3": {"stimulus": 48, "trial": 3, "rt": 1405}, "2": {"stimulus": 32, "trial": 2, "rt": 1483}, "5": {"stimulus": 32, "trial": 5, "rt": 1469}, "4": {"stimulus": 48, "trial": 4, "rt": 1245}, "7": {"stimulus": 50, "trial": 7, "rt": 1494}, "6": {"stimulus": 30, "trial": 6, "rt": 1268}, "9": {"stimulus": 48, "trial": 9, "rt": 980}, "8": {"stimulus": 30, "trial": 8, "rt": 899}}, "generalization": {"56": {"stimulus": 28, "trial": 56, "rt": 2969, "response": "Alpha"}, "77": {"stimulus": 10, "trial": 77, "rt": 931, "response": "Beta"}, "54": {"stimulus": 61, "trial": 54, "rt": 1184, "response": "Beta"}, "42": {"stimulus": 29, "trial": 42, "rt": 1616, "response": "Alpha"}, "48": {"stimulus": 39, "trial": 48, "rt": 1761, "response": "Alpha"}, "43": {"stimulus": 31, "trial": 43, "rt": 1123, "response": "Alpha"}, "60": {"stimulus": 15, "trial": 60, "rt": 1091, "response": "Beta"}, "61": {"stimulus": 35, "trial": 61, "rt": 1078, "response": "Beta"}, "62": {"stimulus": 20, "trial": 62, "rt": 1149, "response": "Beta"}, "63": {"stimulus": 65, "trial": 63, "rt": 1441, "response": "Beta"}, "64": {"stimulus": 5, "trial": 64, "rt": 704, "response": "Beta"}, "49": {"stimulus": 17, "trial": 49, "rt": 972, "response": "Beta"}, "66": {"stimulus": 54, "trial": 66, "rt": 1445, "response": "Beta"}, "67": {"stimulus": 7, "trial": 67, "rt": 847, "response": "Beta"}, "68": {"stimulus": 76, "trial": 68, "rt": 758, "response": "Beta"}, "69": {"stimulus": 57, "trial": 69, "rt": 1492, "response": "Alpha"}, "80": {"stimulus": 1, "trial": 80, "rt": 697, "response": "Beta"}, "52": {"stimulus": 41, "trial": 52, "rt": 1061, "response": "Alpha"}, "53": {"stimulus": 40, "trial": 53, "rt": 880, "response": "Alpha"}, "24": {"stimulus": 63, "trial": 24, "rt": 1394, "response": "Beta"}, "25": {"stimulus": 11, "trial": 25, "rt": 856, "response": "Beta"}, "26": {"stimulus": 9, "trial": 26, "rt": 689, "response": "Beta"}, "27": {"stimulus": 6, "trial": 27, "rt": 984, "response": "Beta"}, "20": {"stimulus": 13, "trial": 20, "rt": 1092, "response": "Beta"}, "21": {"stimulus": 24, "trial": 21, "rt": 1061, "response": "Beta"}, "22": {"stimulus": 60, "trial": 22, "rt": 1078, "response": "Alpha"}, "23": {"stimulus": 25, "trial": 23, "rt": 1118, "response": "Beta"}, "46": {"stimulus": 21, "trial": 46, "rt": 781, "response": "Beta"}, "47": {"stimulus": 55, "trial": 47, "rt": 1426, "response": "Alpha"}, "44": {"stimulus": 37, "trial": 44, "rt": 1360, "response": "Alpha"}, "45": {"stimulus": 78, "trial": 45, "rt": 965, "response": "Beta"}, "28": {"stimulus": 79, "trial": 28, "rt": 1636, "response": "Beta"}, "29": {"stimulus": 18, "trial": 29, "rt": 1835, "response": "Beta"}, "40": {"stimulus": 22, "trial": 40, "rt": 994, "response": "Beta"}, "41": {"stimulus": 49, "trial": 41, "rt": 1029, "response": "Alpha"}, "1": {"stimulus": 73, "trial": 1, "rt": 1531, "response": "Beta"}, "0": {"stimulus": 16, "trial": 0, "rt": 1484, "response": "Beta"}, "3": {"stimulus": 32, "trial": 3, "rt": 1434, "response": "Alpha"}, "2": {"stimulus": 19, "trial": 2, "rt": 2053, "response": "Beta"}, "5": {"stimulus": 8, "trial": 5, "rt": 1061, "response": "Beta"}, "4": {"stimulus": 46, "trial": 4, "rt": 1588, "response": "Alpha"}, "7": {"stimulus": 4, "trial": 7, "rt": 1287, "response": "Beta"}, "6": {"stimulus": 74, "trial": 6, "rt": 1103, "response": "Beta"}, "9": {"stimulus": 69, "trial": 9, "rt": 2075, "response": "Beta"}, "8": {"stimulus": 26, "trial": 8, "rt": 1426, "response": "Alpha"}, "78": {"stimulus": 62, "trial": 78, "rt": 1301, "response": "Alpha"}, "51": {"stimulus": 3, "trial": 51, "rt": 754, "response": "Beta"}, "39": {"stimulus": 30, "trial": 39, "rt": 1194, "response": "Alpha"}, "65": {"stimulus": 14, "trial": 65, "rt": 704, "response": "Beta"}, "76": {"stimulus": 52, "trial": 76, "rt": 1253, "response": "Alpha"}, "75": {"stimulus": 59, "trial": 75, "rt": 984, "response": "Alpha"}, "38": {"stimulus": 12, "trial": 38, "rt": 1126, "response": "Beta"}, "73": {"stimulus": 48, "trial": 73, "rt": 994, "response": "Alpha"}, "72": {"stimulus": 71, "trial": 72, "rt": 1508, "response": "Beta"}, "71": {"stimulus": 45, "trial": 71, "rt": 1480, "response": "Beta"}, "70": {"stimulus": 77, "trial": 70, "rt": 1062, "response": "Beta"}, "59": {"stimulus": 44, "trial": 59, "rt": 1578, "response": "Beta"}, "79": {"stimulus": 80, "trial": 79, "rt": 888, "response": "Beta"}, "58": {"stimulus": 23, "trial": 58, "rt": 1071, "response": "Beta"}, "11": {"stimulus": 75, "trial": 11, "rt": 1499, "response": "Beta"}, "10": {"stimulus": 2, "trial": 10, "rt": 973, "response": "Beta"}, "13": {"stimulus": 56, "trial": 13, "rt": 1177, "response": "Alpha"}, "12": {"stimulus": 53, "trial": 12, "rt": 995, "response": "Alpha"}, "15": {"stimulus": 42, "trial": 15, "rt": 1402, "response": "Alpha"}, "14": {"stimulus": 66, "trial": 14, "rt": 1213, "response": "Alpha"}, "17": {"stimulus": 43, "trial": 17, "rt": 1020, "response": "Alpha"}, "16": {"stimulus": 38, "trial": 16, "rt": 2265, "response": "Alpha"}, "19": {"stimulus": 34, "trial": 19, "rt": 1272, "response": "Alpha"}, "18": {"stimulus": 58, "trial": 18, "rt": 2508, "response": "Alpha"}, "31": {"stimulus": 64, "trial": 31, "rt": 1013, "response": "Beta"}, "30": {"stimulus": 33, "trial": 30, "rt": 1428, "response": "Alpha"}, "37": {"stimulus": 67, "trial": 37, "rt": 997, "response": "Beta"}, "36": {"stimulus": 51, "trial": 36, "rt": 1062, "response": "Alpha"}, "35": {"stimulus": 36, "trial": 35, "rt": 2956, "response": "Alpha"}, "34": {"stimulus": 50, "trial": 34, "rt": 1161, "response": "Alpha"}, "33": {"stimulus": 70, "trial": 33, "rt": 1290, "response": "Beta"}, "55": {"stimulus": 72, "trial": 55, "rt": 1009, "response": "Beta"}, "74": {"stimulus": 68, "trial": 74, "rt": 1810, "response": "Alpha"}, "32": {"stimulus": 27, "trial": 32, "rt": 1900, "response": "Beta"}, "57": {"stimulus": 47, "trial": 57, "rt": 955, "response": "Alpha"}, "50": {"stimulus": 0, "trial": 50, "rt": 1502, "response": "Beta"}}}