{"generation": {"1": {"stimulus": 0, "trial": 1, "rt": 6306}, "0": {"stimulus": 80, "trial": 0, "rt": 7534}, "3": {"stimulus": 8, "trial": 3, "rt": 2577}, "2": {"stimulus": 72, "trial": 2, "rt": 3477}}, "info": {"finish": 1482182795333, "participant": 172, "exposed": true, "lab": false, "start": 1482182637433, "counterbalance": 7, "condition": "Middle", "browser": {"platform": "Win32", "userAgent": "Mozilla/5.0 (Windows NT 10.0; WOW64) AppleWebKit/537.36 (KHTML, like Gecko) Chrome/55.0.2883.87 Safari/537.36"}}, "experiment": {"Paradigm": "TACL", "Stimuli": "Size-Color Squares", "Experiment": "Generating-Categories"}, "observation": {"11": {"stimulus": 50, "trial": 11, "rt": 858}, "10": {"stimulus": 48, "trial": 10, "rt": 810}, "1": {"stimulus": 48, "trial": 1, "rt": 1063}, "0": {"stimulus": 32, "trial": 0, "rt": 1343}, "3": {"stimulus": 30, "trial": 3, "rt": 1031}, "2": {"stimulus": 50, "trial": 2, "rt": 917}, "5": {"stimulus": 50, "trial": 5, "rt": 854}, "4": {"stimulus": 30, "trial": 4, "rt": 1038}, "7": {"stimulus": 32, "trial": 7, "rt": 821}, "6": {"stimulus": 48, "trial": 6, "rt": 857}, "9": {"stimulus": 32, "trial": 9, "rt": 828}, "8": {"stimulus": 30, "trial": 8, "rt": 785}}, "generalization": {"56": {"stimulus": 23, "trial": 56, "rt": 556, "response": "Alpha"}, "77": {"stimulus": 63, "trial": 77, "rt": 3448, "response": "Beta"}, "54": {"stimulus": 46, "trial": 54, "rt": 2385, "response": "Alpha"}, "42": {"stimulus": 1, "trial": 42, "rt": 400, "response": "Alpha"}, "48": {"stimulus": 52, "trial": 48, "rt": 393, "response": "Alpha"}, "43": {"stimulus": 69, "trial": 43, "rt": 566, "response": "Alpha"}, "60": {"stimulus": 50, "trial": 60, "rt": 381, "response": "Alpha"}, "61": {"stimulus": 79, "trial": 61, "rt": 638, "response": "Beta"}, "62": {"stimulus": 64, "trial": 62, "rt": 1845, "response": "Alpha"}, "63": {"stimulus": 43, "trial": 63, "rt": 879, "response": "Beta"}, "64": {"stimulus": 35, "trial": 64, "rt": 723, "response": "Beta"}, "49": {"stimulus": 72, "trial": 49, "rt": 3089, "response": "Alpha"}, "66": {"stimulus": 20, "trial": 66, "rt": 309, "response": "Alpha"}, "67": {"stimulus": 48, "trial": 67, "rt": 313, "response": "Alpha"}, "68": {"stimulus": 19, "trial": 68, "rt": 290, "response": "Alpha"}, "69": {"stimulus": 33, "trial": 69, "rt": 885, "response": "Alpha"}, "80": {"stimulus": 67, "trial": 80, "rt": 329, "response": "Alpha"}, "52": {"stimulus": 29, "trial": 52, "rt": 564, "response": "Alpha"}, "53": {"stimulus": 16, "trial": 53, "rt": 658, "response": "Beta"}, "24": {"stimulus": 18, "trial": 24, "rt": 1203, "response": "Beta"}, "25": {"stimulus": 75, "trial": 25, "rt": 541, "response": "Alpha"}, "26": {"stimulus": 12, "trial": 26, "rt": 606, "response": "Alpha"}, "27": {"stimulus": 77, "trial": 27, "rt": 427, "response": "Alpha"}, "20": {"stimulus": 5, "trial": 20, "rt": 660, "response": "Alpha"}, "21": {"stimulus": 70, "trial": 21, "rt": 972, "response": "Beta"}, "22": {"stimulus": 51, "trial": 22, "rt": 626, "response": "Beta"}, "23": {"stimulus": 45, "trial": 23, "rt": 1151, "response": "Beta"}, "46": {"stimulus": 2, "trial": 46, "rt": 560, "response": "Alpha"}, "47": {"stimulus": 0, "trial": 47, "rt": 1179, "response": "Beta"}, "44": {"stimulus": 78, "trial": 44, "rt": 633, "response": "Alpha"}, "45": {"stimulus": 57, "trial": 45, "rt": 479, "response": "Alpha"}, "28": {"stimulus": 58, "trial": 28, "rt": 483, "response": "Alpha"}, "29": {"stimulus": 60, "trial": 29, "rt": 494, "response": "Alpha"}, "40": {"stimulus": 24, "trial": 40, "rt": 698, "response": "Alpha"}, "41": {"stimulus": 31, "trial": 41, "rt": 405, "response": "Alpha"}, "1": {"stimulus": 56, "trial": 1, "rt": 766, "response": "Alpha"}, "0": {"stimulus": 44, "trial": 0, "rt": 1542, "response": "Beta"}, "3": {"stimulus": 27, "trial": 3, "rt": 494, "response": "Alpha"}, "2": {"stimulus": 71, "trial": 2, "rt": 569, "response": "Beta"}, "5": {"stimulus": 14, "trial": 5, "rt": 827, "response": "Alpha"}, "4": {"stimulus": 62, "trial": 4, "rt": 1416, "response": "Beta"}, "7": {"stimulus": 49, "trial": 7, "rt": 1301, "response": "Alpha"}, "6": {"stimulus": 25, "trial": 6, "rt": 802, "response": "Beta"}, "9": {"stimulus": 61, "trial": 9, "rt": 572, "response": "Beta"}, "8": {"stimulus": 26, "trial": 8, "rt": 625, "response": "Beta"}, "78": {"stimulus": 38, "trial": 78, "rt": 1076, "response": "Alpha"}, "51": {"stimulus": 73, "trial": 51, "rt": 386, "response": "Alpha"}, "39": {"stimulus": 47, "trial": 39, "rt": 624, "response": "Alpha"}, "65": {"stimulus": 59, "trial": 65, "rt": 725, "response": "Alpha"}, "76": {"stimulus": 7, "trial": 76, "rt": 1209, "response": "Beta"}, "75": {"stimulus": 40, "trial": 75, "rt": 331, "response": "Alpha"}, "38": {"stimulus": 17, "trial": 38, "rt": 735, "response": "Beta"}, "73": {"stimulus": 10, "trial": 73, "rt": 341, "response": "Alpha"}, "72": {"stimulus": 54, "trial": 72, "rt": 412, "response": "Alpha"}, "71": {"stimulus": 55, "trial": 71, "rt": 749, "response": "Alpha"}, "70": {"stimulus": 80, "trial": 70, "rt": 680, "response": "Beta"}, "59": {"stimulus": 68, "trial": 59, "rt": 382, "response": "Alpha"}, "79": {"stimulus": 11, "trial": 79, "rt": 535, "response": "Alpha"}, "58": {"stimulus": 32, "trial": 58, "rt": 378, "response": "Alpha"}, "11": {"stimulus": 39, "trial": 11, "rt": 681, "response": "Alpha"}, "10": {"stimulus": 4, "trial": 10, "rt": 767, "response": "Alpha"}, "13": {"stimulus": 30, "trial": 13, "rt": 570, "response": "Alpha"}, "12": {"stimulus": 66, "trial": 12, "rt": 574, "response": "Alpha"}, "15": {"stimulus": 65, "trial": 15, "rt": 503, "response": "Alpha"}, "14": {"stimulus": 41, "trial": 14, "rt": 579, "response": "Alpha"}, "17": {"stimulus": 21, "trial": 17, "rt": 523, "response": "Alpha"}, "16": {"stimulus": 6, "trial": 16, "rt": 1088, "response": "Alpha"}, "19": {"stimulus": 74, "trial": 19, "rt": 497, "response": "Alpha"}, "18": {"stimulus": 42, "trial": 18, "rt": 427, "response": "Alpha"}, "31": {"stimulus": 15, "trial": 31, "rt": 1237, "response": "Alpha"}, "30": {"stimulus": 3, "trial": 30, "rt": 488, "response": "Alpha"}, "37": {"stimulus": 28, "trial": 37, "rt": 1596, "response": "Alpha"}, "36": {"stimulus": 9, "trial": 36, "rt": 914, "response": "Beta"}, "35": {"stimulus": 76, "trial": 35, "rt": 534, "response": "Alpha"}, "34": {"stimulus": 53, "trial": 34, "rt": 716, "response": "Beta"}, "33": {"stimulus": 34, "trial": 33, "rt": 1411, "response": "Beta"}, "55": {"stimulus": 37, "trial": 55, "rt": 377, "response": "Alpha"}, "74": {"stimulus": 36, "trial": 74, "rt": 411, "response": "Alpha"}, "32": {"stimulus": 8, "trial": 32, "rt": 611, "response": "Beta"}, "57": {"stimulus": 22, "trial": 57, "rt": 442, "response": "Alpha"}, "50": {"stimulus": 13, "trial": 50, "rt": 586, "response": "Alpha"}}}