{"generation": {"1": {"stimulus": 0, "trial": 1, "rt": 5344}, "0": {"stimulus": 8, "trial": 0, "rt": 8073}, "3": {"stimulus": 9, "trial": 3, "rt": 3471}, "2": {"stimulus": 17, "trial": 2, "rt": 17783}}, "info": {"finish": 1482183189641, "participant": 173, "exposed": true, "lab": false, "start": 1482182937626, "counterbalance": 0, "condition": "Middle", "browser": {"platform": "Win32", "userAgent": "Mozilla/5.0 (Windows NT 10.0; Win64; x64) AppleWebKit/537.36 (KHTML, like Gecko) Chrome/55.0.2883.87 Safari/537.36"}}, "experiment": {"Paradigm": "TACL", "Stimuli": "Size-Color Squares", "Experiment": "Generating-Categories"}, "observation": {"11": {"stimulus": 48, "trial": 11, "rt": 1335}, "10": {"stimulus": 32, "trial": 10, "rt": 1493}, "1": {"stimulus": 30, "trial": 1, "rt": 1751}, "0": {"stimulus": 48, "trial": 0, "rt": 2055}, "3": {"stimulus": 32, "trial": 3, "rt": 1605}, "2": {"stimulus": 50, "trial": 2, "rt": 1321}, "5": {"stimulus": 30, "trial": 5, "rt": 1557}, "4": {"stimulus": 32, "trial": 4, "rt": 2500}, "7": {"stimulus": 48, "trial": 7, "rt": 1078}, "6": {"stimulus": 50, "trial": 6, "rt": 1228}, "9": {"stimulus": 50, "trial": 9, "rt": 1155}, "8": {"stimulus": 30, "trial": 8, "rt": 992}}, "generalization": {"56": {"stimulus": 67, "trial": 56, "rt": 1073, "response": "Alpha"}, "77": {"stimulus": 45, "trial": 77, "rt": 1037, "response": "Alpha"}, "54": {"stimulus": 27, "trial": 54, "rt": 1443, "response": "Beta"}, "42": {"stimulus": 13, "trial": 42, "rt": 1250, "response": "Beta"}, "48": {"stimulus": 18, "trial": 48, "rt": 922, "response": "Beta"}, "43": {"stimulus": 39, "trial": 43, "rt": 720, "response": "Alpha"}, "60": {"stimulus": 64, "trial": 60, "rt": 1095, "response": "Alpha"}, "61": {"stimulus": 22, "trial": 61, "rt": 1373, "response": "Beta"}, "62": {"stimulus": 77, "trial": 62, "rt": 539, "response": "Alpha"}, "63": {"stimulus": 34, "trial": 63, "rt": 1175, "response": "Beta"}, "64": {"stimulus": 59, "trial": 64, "rt": 503, "response": "Alpha"}, "49": {"stimulus": 73, "trial": 49, "rt": 1103, "response": "Alpha"}, "66": {"stimulus": 15, "trial": 66, "rt": 665, "response": "Beta"}, "67": {"stimulus": 21, "trial": 67, "rt": 1339, "response": "Beta"}, "68": {"stimulus": 11, "trial": 68, "rt": 768, "response": "Beta"}, "69": {"stimulus": 62, "trial": 69, "rt": 499, "response": "Alpha"}, "80": {"stimulus": 3, "trial": 80, "rt": 809, "response": "Beta"}, "52": {"stimulus": 14, "trial": 52, "rt": 644, "response": "Beta"}, "53": {"stimulus": 47, "trial": 53, "rt": 681, "response": "Alpha"}, "24": {"stimulus": 56, "trial": 24, "rt": 1217, "response": "Alpha"}, "25": {"stimulus": 41, "trial": 25, "rt": 1515, "response": "Alpha"}, "26": {"stimulus": 31, "trial": 26, "rt": 923, "response": "Beta"}, "27": {"stimulus": 40, "trial": 27, "rt": 1047, "response": "Beta"}, "20": {"stimulus": 54, "trial": 20, "rt": 839, "response": "Alpha"}, "21": {"stimulus": 1, "trial": 21, "rt": 1200, "response": "Beta"}, "22": {"stimulus": 51, "trial": 22, "rt": 1052, "response": "Alpha"}, "23": {"stimulus": 25, "trial": 23, "rt": 1046, "response": "Beta"}, "46": {"stimulus": 70, "trial": 46, "rt": 633, "response": "Alpha"}, "47": {"stimulus": 36, "trial": 47, "rt": 1053, "response": "Alpha"}, "44": {"stimulus": 26, "trial": 44, "rt": 845, "response": "Beta"}, "45": {"stimulus": 72, "trial": 45, "rt": 641, "response": "Alpha"}, "28": {"stimulus": 75, "trial": 28, "rt": 613, "response": "Alpha"}, "29": {"stimulus": 61, "trial": 29, "rt": 1007, "response": "Alpha"}, "40": {"stimulus": 0, "trial": 40, "rt": 925, "response": "Beta"}, "41": {"stimulus": 76, "trial": 41, "rt": 819, "response": "Alpha"}, "1": {"stimulus": 7, "trial": 1, "rt": 1297, "response": "Beta"}, "0": {"stimulus": 50, "trial": 0, "rt": 1265, "response": "Alpha"}, "3": {"stimulus": 65, "trial": 3, "rt": 2015, "response": "Alpha"}, "2": {"stimulus": 5, "trial": 2, "rt": 1175, "response": "Beta"}, "5": {"stimulus": 44, "trial": 5, "rt": 4479, "response": "Beta"}, "4": {"stimulus": 63, "trial": 4, "rt": 1425, "response": "Alpha"}, "7": {"stimulus": 42, "trial": 7, "rt": 3441, "response": "Beta"}, "6": {"stimulus": 78, "trial": 6, "rt": 1243, "response": "Alpha"}, "9": {"stimulus": 52, "trial": 9, "rt": 959, "response": "Alpha"}, "8": {"stimulus": 32, "trial": 8, "rt": 1111, "response": "Beta"}, "78": {"stimulus": 43, "trial": 78, "rt": 1157, "response": "Beta"}, "51": {"stimulus": 10, "trial": 51, "rt": 737, "response": "Beta"}, "39": {"stimulus": 17, "trial": 39, "rt": 845, "response": "Beta"}, "65": {"stimulus": 12, "trial": 65, "rt": 1056, "response": "Beta"}, "76": {"stimulus": 37, "trial": 76, "rt": 591, "response": "Alpha"}, "75": {"stimulus": 46, "trial": 75, "rt": 841, "response": "Alpha"}, "38": {"stimulus": 66, "trial": 38, "rt": 1239, "response": "Alpha"}, "73": {"stimulus": 60, "trial": 73, "rt": 1087, "response": "Alpha"}, "72": {"stimulus": 79, "trial": 72, "rt": 1233, "response": "Alpha"}, "71": {"stimulus": 55, "trial": 71, "rt": 1077, "response": "Alpha"}, "70": {"stimulus": 38, "trial": 70, "rt": 1317, "response": "Alpha"}, "59": {"stimulus": 68, "trial": 59, "rt": 986, "response": "Alpha"}, "79": {"stimulus": 24, "trial": 79, "rt": 1081, "response": "Beta"}, "58": {"stimulus": 57, "trial": 58, "rt": 1167, "response": "Alpha"}, "11": {"stimulus": 80, "trial": 11, "rt": 809, "response": "Alpha"}, "10": {"stimulus": 30, "trial": 10, "rt": 3685, "response": "Beta"}, "13": {"stimulus": 28, "trial": 13, "rt": 1603, "response": "Beta"}, "12": {"stimulus": 71, "trial": 12, "rt": 505, "response": "Alpha"}, "15": {"stimulus": 74, "trial": 15, "rt": 895, "response": "Alpha"}, "14": {"stimulus": 4, "trial": 14, "rt": 805, "response": "Beta"}, "17": {"stimulus": 33, "trial": 17, "rt": 2231, "response": "Beta"}, "16": {"stimulus": 20, "trial": 16, "rt": 1341, "response": "Beta"}, "19": {"stimulus": 23, "trial": 19, "rt": 933, "response": "Beta"}, "18": {"stimulus": 16, "trial": 18, "rt": 988, "response": "Beta"}, "31": {"stimulus": 19, "trial": 31, "rt": 1336, "response": "Beta"}, "30": {"stimulus": 9, "trial": 30, "rt": 812, "response": "Beta"}, "37": {"stimulus": 35, "trial": 37, "rt": 1375, "response": "Beta"}, "36": {"stimulus": 2, "trial": 36, "rt": 689, "response": "Beta"}, "35": {"stimulus": 48, "trial": 35, "rt": 616, "response": "Alpha"}, "34": {"stimulus": 49, "trial": 34, "rt": 621, "response": "Alpha"}, "33": {"stimulus": 58, "trial": 33, "rt": 853, "response": "Alpha"}, "55": {"stimulus": 8, "trial": 55, "rt": 692, "response": "Beta"}, "74": {"stimulus": 29, "trial": 74, "rt": 1555, "response": "Beta"}, "32": {"stimulus": 6, "trial": 32, "rt": 1120, "response": "Beta"}, "57": {"stimulus": 53, "trial": 57, "rt": 1527, "response": "Alpha"}, "50": {"stimulus": 69, "trial": 50, "rt": 875, "response": "Alpha"}}}