{"generation": {"1": {"stimulus": 8, "trial": 1, "rt": 7130}, "0": {"stimulus": 80, "trial": 0, "rt": 14314}, "3": {"stimulus": 0, "trial": 3, "rt": 4564}, "2": {"stimulus": 72, "trial": 2, "rt": 6891}}, "info": {"finish": 1482183493997, "participant": 174, "exposed": true, "lab": false, "start": 1482183265436, "counterbalance": 2, "condition": "Middle", "browser": {"platform": "Win32", "userAgent": "Mozilla/5.0 (Windows NT 10.0; Win64; x64) AppleWebKit/537.36 (KHTML, like Gecko) Chrome/55.0.2883.87 Safari/537.36"}}, "experiment": {"Paradigm": "TACL", "Stimuli": "Size-Color Squares", "Experiment": "Generating-Categories"}, "observation": {"11": {"stimulus": 50, "trial": 11, "rt": 899}, "10": {"stimulus": 30, "trial": 10, "rt": 1002}, "1": {"stimulus": 50, "trial": 1, "rt": 1267}, "0": {"stimulus": 30, "trial": 0, "rt": 1916}, "3": {"stimulus": 48, "trial": 3, "rt": 956}, "2": {"stimulus": 32, "trial": 2, "rt": 955}, "5": {"stimulus": 30, "trial": 5, "rt": 1155}, "4": {"stimulus": 32, "trial": 4, "rt": 891}, "7": {"stimulus": 48, "trial": 7, "rt": 1011}, "6": {"stimulus": 50, "trial": 6, "rt": 996}, "9": {"stimulus": 48, "trial": 9, "rt": 977}, "8": {"stimulus": 32, "trial": 8, "rt": 1292}}, "generalization": {"56": {"stimulus": 28, "trial": 56, "rt": 1148, "response": "Alpha"}, "77": {"stimulus": 78, "trial": 77, "rt": 739, "response": "Beta"}, "54": {"stimulus": 60, "trial": 54, "rt": 994, "response": "Alpha"}, "42": {"stimulus": 66, "trial": 42, "rt": 797, "response": "Alpha"}, "48": {"stimulus": 27, "trial": 48, "rt": 804, "response": "Beta"}, "43": {"stimulus": 36, "trial": 43, "rt": 939, "response": "Alpha"}, "60": {"stimulus": 16, "trial": 60, "rt": 708, "response": "Beta"}, "61": {"stimulus": 72, "trial": 61, "rt": 1196, "response": "Beta"}, "62": {"stimulus": 61, "trial": 62, "rt": 827, "response": "Alpha"}, "63": {"stimulus": 71, "trial": 63, "rt": 2458, "response": "Alpha"}, "64": {"stimulus": 47, "trial": 64, "rt": 771, "response": "Alpha"}, "49": {"stimulus": 79, "trial": 49, "rt": 1243, "response": "Beta"}, "66": {"stimulus": 33, "trial": 66, "rt": 890, "response": "Alpha"}, "67": {"stimulus": 62, "trial": 67, "rt": 788, "response": "Alpha"}, "68": {"stimulus": 13, "trial": 68, "rt": 636, "response": "Beta"}, "69": {"stimulus": 50, "trial": 69, "rt": 1636, "response": "Alpha"}, "80": {"stimulus": 75, "trial": 80, "rt": 1379, "response": "Beta"}, "52": {"stimulus": 24, "trial": 52, "rt": 763, "response": "Beta"}, "53": {"stimulus": 29, "trial": 53, "rt": 1804, "response": "Alpha"}, "24": {"stimulus": 25, "trial": 24, "rt": 931, "response": "Beta"}, "25": {"stimulus": 0, "trial": 25, "rt": 964, "response": "Beta"}, "26": {"stimulus": 31, "trial": 26, "rt": 747, "response": "Alpha"}, "27": {"stimulus": 19, "trial": 27, "rt": 834, "response": "Beta"}, "20": {"stimulus": 76, "trial": 20, "rt": 844, "response": "Beta"}, "21": {"stimulus": 30, "trial": 21, "rt": 5508, "response": "Alpha"}, "22": {"stimulus": 54, "trial": 22, "rt": 1411, "response": "Alpha"}, "23": {"stimulus": 34, "trial": 23, "rt": 3835, "response": "Alpha"}, "46": {"stimulus": 67, "trial": 46, "rt": 3512, "response": "Alpha"}, "47": {"stimulus": 59, "trial": 47, "rt": 882, "response": "Alpha"}, "44": {"stimulus": 77, "trial": 44, "rt": 1058, "response": "Beta"}, "45": {"stimulus": 39, "trial": 45, "rt": 732, "response": "Alpha"}, "28": {"stimulus": 1, "trial": 28, "rt": 828, "response": "Beta"}, "29": {"stimulus": 15, "trial": 29, "rt": 794, "response": "Beta"}, "40": {"stimulus": 22, "trial": 40, "rt": 713, "response": "Beta"}, "41": {"stimulus": 11, "trial": 41, "rt": 802, "response": "Beta"}, "1": {"stimulus": 46, "trial": 1, "rt": 1284, "response": "Alpha"}, "0": {"stimulus": 9, "trial": 0, "rt": 1232, "response": "Beta"}, "3": {"stimulus": 45, "trial": 3, "rt": 931, "response": "Alpha"}, "2": {"stimulus": 7, "trial": 2, "rt": 779, "response": "Beta"}, "5": {"stimulus": 26, "trial": 5, "rt": 1619, "response": "Beta"}, "4": {"stimulus": 63, "trial": 4, "rt": 3683, "response": "Beta"}, "7": {"stimulus": 43, "trial": 7, "rt": 859, "response": "Alpha"}, "6": {"stimulus": 44, "trial": 6, "rt": 1851, "response": "Alpha"}, "9": {"stimulus": 10, "trial": 9, "rt": 997, "response": "Beta"}, "8": {"stimulus": 53, "trial": 8, "rt": 931, "response": "Alpha"}, "78": {"stimulus": 18, "trial": 78, "rt": 988, "response": "Beta"}, "51": {"stimulus": 32, "trial": 51, "rt": 840, "response": "Alpha"}, "39": {"stimulus": 4, "trial": 39, "rt": 493, "response": "Beta"}, "65": {"stimulus": 64, "trial": 65, "rt": 748, "response": "Alpha"}, "76": {"stimulus": 58, "trial": 76, "rt": 548, "response": "Alpha"}, "75": {"stimulus": 69, "trial": 75, "rt": 771, "response": "Alpha"}, "38": {"stimulus": 6, "trial": 38, "rt": 875, "response": "Beta"}, "73": {"stimulus": 68, "trial": 73, "rt": 604, "response": "Beta"}, "72": {"stimulus": 74, "trial": 72, "rt": 820, "response": "Beta"}, "71": {"stimulus": 40, "trial": 71, "rt": 859, "response": "Alpha"}, "70": {"stimulus": 42, "trial": 70, "rt": 661, "response": "Alpha"}, "59": {"stimulus": 56, "trial": 59, "rt": 740, "response": "Alpha"}, "79": {"stimulus": 14, "trial": 79, "rt": 746, "response": "Beta"}, "58": {"stimulus": 52, "trial": 58, "rt": 618, "response": "Alpha"}, "11": {"stimulus": 12, "trial": 11, "rt": 697, "response": "Beta"}, "10": {"stimulus": 55, "trial": 10, "rt": 924, "response": "Alpha"}, "13": {"stimulus": 2, "trial": 13, "rt": 938, "response": "Beta"}, "12": {"stimulus": 38, "trial": 12, "rt": 715, "response": "Alpha"}, "15": {"stimulus": 3, "trial": 15, "rt": 884, "response": "Beta"}, "14": {"stimulus": 41, "trial": 14, "rt": 747, "response": "Alpha"}, "17": {"stimulus": 51, "trial": 17, "rt": 740, "response": "Alpha"}, "16": {"stimulus": 21, "trial": 16, "rt": 1292, "response": "Beta"}, "19": {"stimulus": 65, "trial": 19, "rt": 884, "response": "Alpha"}, "18": {"stimulus": 8, "trial": 18, "rt": 721, "response": "Beta"}, "31": {"stimulus": 17, "trial": 31, "rt": 628, "response": "Beta"}, "30": {"stimulus": 35, "trial": 30, "rt": 787, "response": "Alpha"}, "37": {"stimulus": 70, "trial": 37, "rt": 2811, "response": "Alpha"}, "36": {"stimulus": 23, "trial": 36, "rt": 3108, "response": "Alpha"}, "35": {"stimulus": 73, "trial": 35, "rt": 1282, "response": "Beta"}, "34": {"stimulus": 20, "trial": 34, "rt": 2147, "response": "Beta"}, "33": {"stimulus": 49, "trial": 33, "rt": 612, "response": "Alpha"}, "55": {"stimulus": 5, "trial": 55, "rt": 667, "response": "Beta"}, "74": {"stimulus": 57, "trial": 74, "rt": 579, "response": "Alpha"}, "32": {"stimulus": 80, "trial": 32, "rt": 1314, "response": "Beta"}, "57": {"stimulus": 37, "trial": 57, "rt": 788, "response": "Alpha"}, "50": {"stimulus": 48, "trial": 50, "rt": 755, "response": "Alpha"}}}