{"generation": {"1": {"stimulus": 80, "trial": 1, "rt": 3219}, "0": {"stimulus": 72, "trial": 0, "rt": 3906}, "3": {"stimulus": 71, "trial": 3, "rt": 3403}, "2": {"stimulus": 63, "trial": 2, "rt": 6202}}, "info": {"finish": 1482183647329, "participant": 175, "exposed": true, "lab": false, "start": 1482183510963, "counterbalance": 2, "condition": "Bottom", "browser": {"platform": "Win32", "userAgent": "Mozilla/5.0 (Windows NT 10.0; WOW64; rv:50.0) Gecko/20100101 Firefox/50.0"}}, "experiment": {"Paradigm": "TACL", "Stimuli": "Size-Color Squares", "Experiment": "Generating-Categories"}, "observation": {"11": {"stimulus": 14, "trial": 11, "rt": 723}, "10": {"stimulus": 30, "trial": 10, "rt": 730}, "1": {"stimulus": 32, "trial": 1, "rt": 1004}, "0": {"stimulus": 12, "trial": 0, "rt": 1141}, "3": {"stimulus": 30, "trial": 3, "rt": 851}, "2": {"stimulus": 14, "trial": 2, "rt": 913}, "5": {"stimulus": 30, "trial": 5, "rt": 787}, "4": {"stimulus": 14, "trial": 4, "rt": 827}, "7": {"stimulus": 32, "trial": 7, "rt": 847}, "6": {"stimulus": 12, "trial": 6, "rt": 771}, "9": {"stimulus": 32, "trial": 9, "rt": 828}, "8": {"stimulus": 12, "trial": 8, "rt": 773}}, "generalization": {"56": {"stimulus": 12, "trial": 56, "rt": 642, "response": "Alpha"}, "77": {"stimulus": 67, "trial": 77, "rt": 446, "response": "Beta"}, "54": {"stimulus": 38, "trial": 54, "rt": 611, "response": "Alpha"}, "42": {"stimulus": 10, "trial": 42, "rt": 562, "response": "Beta"}, "48": {"stimulus": 52, "trial": 48, "rt": 723, "response": "Alpha"}, "43": {"stimulus": 25, "trial": 43, "rt": 610, "response": "Alpha"}, "60": {"stimulus": 22, "trial": 60, "rt": 579, "response": "Alpha"}, "61": {"stimulus": 73, "trial": 61, "rt": 684, "response": "Beta"}, "62": {"stimulus": 76, "trial": 62, "rt": 491, "response": "Beta"}, "63": {"stimulus": 7, "trial": 63, "rt": 627, "response": "Alpha"}, "64": {"stimulus": 45, "trial": 64, "rt": 1049, "response": "Beta"}, "49": {"stimulus": 1, "trial": 49, "rt": 539, "response": "Alpha"}, "66": {"stimulus": 16, "trial": 66, "rt": 482, "response": "Alpha"}, "67": {"stimulus": 72, "trial": 67, "rt": 627, "response": "Beta"}, "68": {"stimulus": 18, "trial": 68, "rt": 794, "response": "Alpha"}, "69": {"stimulus": 54, "trial": 69, "rt": 1003, "response": "Beta"}, "80": {"stimulus": 27, "trial": 80, "rt": 714, "response": "Alpha"}, "52": {"stimulus": 32, "trial": 52, "rt": 994, "response": "Alpha"}, "53": {"stimulus": 37, "trial": 53, "rt": 704, "response": "Alpha"}, "24": {"stimulus": 56, "trial": 24, "rt": 798, "response": "Beta"}, "25": {"stimulus": 57, "trial": 25, "rt": 473, "response": "Beta"}, "26": {"stimulus": 39, "trial": 26, "rt": 563, "response": "Beta"}, "27": {"stimulus": 23, "trial": 27, "rt": 555, "response": "Alpha"}, "20": {"stimulus": 0, "trial": 20, "rt": 667, "response": "Alpha"}, "21": {"stimulus": 6, "trial": 21, "rt": 514, "response": "Alpha"}, "22": {"stimulus": 44, "trial": 22, "rt": 947, "response": "Alpha"}, "23": {"stimulus": 14, "trial": 23, "rt": 531, "response": "Alpha"}, "46": {"stimulus": 8, "trial": 46, "rt": 474, "response": "Alpha"}, "47": {"stimulus": 19, "trial": 47, "rt": 459, "response": "Alpha"}, "44": {"stimulus": 71, "trial": 44, "rt": 714, "response": "Beta"}, "45": {"stimulus": 2, "trial": 45, "rt": 556, "response": "Alpha"}, "28": {"stimulus": 24, "trial": 28, "rt": 427, "response": "Alpha"}, "29": {"stimulus": 65, "trial": 29, "rt": 738, "response": "Beta"}, "40": {"stimulus": 51, "trial": 40, "rt": 915, "response": "Alpha"}, "41": {"stimulus": 49, "trial": 41, "rt": 564, "response": "Alpha"}, "1": {"stimulus": 70, "trial": 1, "rt": 647, "response": "Beta"}, "0": {"stimulus": 58, "trial": 0, "rt": 1367, "response": "Beta"}, "3": {"stimulus": 20, "trial": 3, "rt": 669, "response": "Alpha"}, "2": {"stimulus": 77, "trial": 2, "rt": 698, "response": "Beta"}, "5": {"stimulus": 15, "trial": 5, "rt": 458, "response": "Alpha"}, "4": {"stimulus": 11, "trial": 4, "rt": 497, "response": "Alpha"}, "7": {"stimulus": 42, "trial": 7, "rt": 763, "response": "Alpha"}, "6": {"stimulus": 75, "trial": 6, "rt": 921, "response": "Beta"}, "9": {"stimulus": 13, "trial": 9, "rt": 531, "response": "Alpha"}, "8": {"stimulus": 21, "trial": 8, "rt": 552, "response": "Alpha"}, "78": {"stimulus": 63, "trial": 78, "rt": 475, "response": "Beta"}, "51": {"stimulus": 62, "trial": 51, "rt": 899, "response": "Beta"}, "39": {"stimulus": 64, "trial": 39, "rt": 554, "response": "Beta"}, "65": {"stimulus": 17, "trial": 65, "rt": 603, "response": "Alpha"}, "76": {"stimulus": 74, "trial": 76, "rt": 562, "response": "Beta"}, "75": {"stimulus": 69, "trial": 75, "rt": 627, "response": "Beta"}, "38": {"stimulus": 55, "trial": 38, "rt": 788, "response": "Beta"}, "73": {"stimulus": 35, "trial": 73, "rt": 617, "response": "Alpha"}, "72": {"stimulus": 61, "trial": 72, "rt": 908, "response": "Beta"}, "71": {"stimulus": 28, "trial": 71, "rt": 906, "response": "Alpha"}, "70": {"stimulus": 59, "trial": 70, "rt": 563, "response": "Beta"}, "59": {"stimulus": 79, "trial": 59, "rt": 659, "response": "Beta"}, "79": {"stimulus": 68, "trial": 79, "rt": 419, "response": "Beta"}, "58": {"stimulus": 41, "trial": 58, "rt": 619, "response": "Alpha"}, "11": {"stimulus": 33, "trial": 11, "rt": 562, "response": "Alpha"}, "10": {"stimulus": 50, "trial": 10, "rt": 715, "response": "Alpha"}, "13": {"stimulus": 53, "trial": 13, "rt": 747, "response": "Alpha"}, "12": {"stimulus": 30, "trial": 12, "rt": 523, "response": "Alpha"}, "15": {"stimulus": 66, "trial": 15, "rt": 771, "response": "Beta"}, "14": {"stimulus": 43, "trial": 14, "rt": 723, "response": "Alpha"}, "17": {"stimulus": 48, "trial": 17, "rt": 1439, "response": "Alpha"}, "16": {"stimulus": 3, "trial": 16, "rt": 610, "response": "Alpha"}, "19": {"stimulus": 80, "trial": 19, "rt": 690, "response": "Beta"}, "18": {"stimulus": 26, "trial": 18, "rt": 827, "response": "Alpha"}, "31": {"stimulus": 34, "trial": 31, "rt": 473, "response": "Alpha"}, "30": {"stimulus": 4, "trial": 30, "rt": 634, "response": "Alpha"}, "37": {"stimulus": 31, "trial": 37, "rt": 731, "response": "Alpha"}, "36": {"stimulus": 5, "trial": 36, "rt": 499, "response": "Alpha"}, "35": {"stimulus": 40, "trial": 35, "rt": 635, "response": "Alpha"}, "34": {"stimulus": 46, "trial": 34, "rt": 834, "response": "Alpha"}, "33": {"stimulus": 9, "trial": 33, "rt": 566, "response": "Alpha"}, "55": {"stimulus": 78, "trial": 55, "rt": 667, "response": "Beta"}, "74": {"stimulus": 60, "trial": 74, "rt": 946, "response": "Beta"}, "32": {"stimulus": 36, "trial": 32, "rt": 632, "response": "Alpha"}, "57": {"stimulus": 29, "trial": 57, "rt": 690, "response": "Alpha"}, "50": {"stimulus": 47, "trial": 50, "rt": 755, "response": "Beta"}}}