{"generation": {"1": {"stimulus": 4, "trial": 1, "rt": 6494}, "0": {"stimulus": 76, "trial": 0, "rt": 10016}, "3": {"stimulus": 8, "trial": 3, "rt": 4076}, "2": {"stimulus": 80, "trial": 2, "rt": 5405}}, "info": {"finish": 1482183818003, "participant": 176, "exposed": true, "lab": false, "start": 1482183547779, "counterbalance": 3, "condition": "Middle", "browser": {"platform": "Win32", "userAgent": "Mozilla/5.0 (Windows NT 10.0; WOW64) AppleWebKit/537.36 (KHTML, like Gecko) Chrome/55.0.2883.87 Safari/537.36"}}, "experiment": {"Paradigm": "TACL", "Stimuli": "Size-Color Squares", "Experiment": "Generating-Categories"}, "observation": {"11": {"stimulus": 32, "trial": 11, "rt": 1085}, "10": {"stimulus": 50, "trial": 10, "rt": 1230}, "1": {"stimulus": 50, "trial": 1, "rt": 1364}, "0": {"stimulus": 32, "trial": 0, "rt": 2083}, "3": {"stimulus": 30, "trial": 3, "rt": 1241}, "2": {"stimulus": 48, "trial": 2, "rt": 1380}, "5": {"stimulus": 48, "trial": 5, "rt": 1355}, "4": {"stimulus": 32, "trial": 4, "rt": 1126}, "7": {"stimulus": 30, "trial": 7, "rt": 1089}, "6": {"stimulus": 50, "trial": 6, "rt": 1081}, "9": {"stimulus": 30, "trial": 9, "rt": 1214}, "8": {"stimulus": 48, "trial": 8, "rt": 1094}}, "generalization": {"56": {"stimulus": 36, "trial": 56, "rt": 602, "response": "Alpha"}, "77": {"stimulus": 13, "trial": 77, "rt": 746, "response": "Alpha"}, "54": {"stimulus": 57, "trial": 54, "rt": 644, "response": "Alpha"}, "42": {"stimulus": 71, "trial": 42, "rt": 2407, "response": "Alpha"}, "48": {"stimulus": 29, "trial": 48, "rt": 4389, "response": "Alpha"}, "43": {"stimulus": 50, "trial": 43, "rt": 851, "response": "Alpha"}, "60": {"stimulus": 2, "trial": 60, "rt": 1618, "response": "Alpha"}, "61": {"stimulus": 48, "trial": 61, "rt": 700, "response": "Alpha"}, "62": {"stimulus": 43, "trial": 62, "rt": 679, "response": "Alpha"}, "63": {"stimulus": 21, "trial": 63, "rt": 737, "response": "Alpha"}, "64": {"stimulus": 15, "trial": 64, "rt": 656, "response": "Alpha"}, "49": {"stimulus": 47, "trial": 49, "rt": 864, "response": "Alpha"}, "66": {"stimulus": 0, "trial": 66, "rt": 681, "response": "Alpha"}, "67": {"stimulus": 58, "trial": 67, "rt": 641, "response": "Alpha"}, "68": {"stimulus": 23, "trial": 68, "rt": 636, "response": "Alpha"}, "69": {"stimulus": 39, "trial": 69, "rt": 708, "response": "Alpha"}, "80": {"stimulus": 30, "trial": 80, "rt": 838, "response": "Alpha"}, "52": {"stimulus": 65, "trial": 52, "rt": 1589, "response": "Alpha"}, "53": {"stimulus": 38, "trial": 53, "rt": 712, "response": "Alpha"}, "24": {"stimulus": 55, "trial": 24, "rt": 837, "response": "Alpha"}, "25": {"stimulus": 51, "trial": 25, "rt": 827, "response": "Alpha"}, "26": {"stimulus": 64, "trial": 26, "rt": 947, "response": "Alpha"}, "27": {"stimulus": 69, "trial": 27, "rt": 1411, "response": "Alpha"}, "20": {"stimulus": 35, "trial": 20, "rt": 736, "response": "Alpha"}, "21": {"stimulus": 11, "trial": 21, "rt": 542, "response": "Alpha"}, "22": {"stimulus": 1, "trial": 22, "rt": 887, "response": "Alpha"}, "23": {"stimulus": 42, "trial": 23, "rt": 801, "response": "Alpha"}, "46": {"stimulus": 68, "trial": 46, "rt": 1524, "response": "Alpha"}, "47": {"stimulus": 79, "trial": 47, "rt": 1741, "response": "Beta"}, "44": {"stimulus": 10, "trial": 44, "rt": 808, "response": "Alpha"}, "45": {"stimulus": 16, "trial": 45, "rt": 923, "response": "Alpha"}, "28": {"stimulus": 63, "trial": 28, "rt": 966, "response": "Alpha"}, "29": {"stimulus": 9, "trial": 29, "rt": 890, "response": "Alpha"}, "40": {"stimulus": 44, "trial": 40, "rt": 791, "response": "Alpha"}, "41": {"stimulus": 3, "trial": 41, "rt": 719, "response": "Alpha"}, "1": {"stimulus": 27, "trial": 1, "rt": 765, "response": "Alpha"}, "0": {"stimulus": 20, "trial": 0, "rt": 1626, "response": "Alpha"}, "3": {"stimulus": 31, "trial": 3, "rt": 686, "response": "Alpha"}, "2": {"stimulus": 34, "trial": 2, "rt": 808, "response": "Alpha"}, "5": {"stimulus": 32, "trial": 5, "rt": 737, "response": "Alpha"}, "4": {"stimulus": 12, "trial": 4, "rt": 762, "response": "Alpha"}, "7": {"stimulus": 53, "trial": 7, "rt": 1566, "response": "Alpha"}, "6": {"stimulus": 19, "trial": 6, "rt": 791, "response": "Alpha"}, "9": {"stimulus": 7, "trial": 9, "rt": 1798, "response": "Alpha"}, "8": {"stimulus": 80, "trial": 8, "rt": 922, "response": "Beta"}, "78": {"stimulus": 26, "trial": 78, "rt": 773, "response": "Alpha"}, "51": {"stimulus": 60, "trial": 51, "rt": 769, "response": "Alpha"}, "39": {"stimulus": 66, "trial": 39, "rt": 979, "response": "Alpha"}, "65": {"stimulus": 75, "trial": 65, "rt": 1218, "response": "Beta"}, "76": {"stimulus": 46, "trial": 76, "rt": 813, "response": "Alpha"}, "75": {"stimulus": 33, "trial": 75, "rt": 722, "response": "Alpha"}, "38": {"stimulus": 18, "trial": 38, "rt": 719, "response": "Alpha"}, "73": {"stimulus": 54, "trial": 73, "rt": 786, "response": "Alpha"}, "72": {"stimulus": 8, "trial": 72, "rt": 804, "response": "Alpha"}, "71": {"stimulus": 62, "trial": 71, "rt": 758, "response": "Alpha"}, "70": {"stimulus": 45, "trial": 70, "rt": 682, "response": "Alpha"}, "59": {"stimulus": 78, "trial": 59, "rt": 1091, "response": "Beta"}, "79": {"stimulus": 6, "trial": 79, "rt": 3135, "response": "Beta"}, "58": {"stimulus": 76, "trial": 58, "rt": 1242, "response": "Beta"}, "11": {"stimulus": 77, "trial": 11, "rt": 857, "response": "Beta"}, "10": {"stimulus": 59, "trial": 10, "rt": 1121, "response": "Alpha"}, "13": {"stimulus": 14, "trial": 13, "rt": 989, "response": "Alpha"}, "12": {"stimulus": 28, "trial": 12, "rt": 870, "response": "Alpha"}, "15": {"stimulus": 56, "trial": 15, "rt": 870, "response": "Alpha"}, "14": {"stimulus": 37, "trial": 14, "rt": 709, "response": "Alpha"}, "17": {"stimulus": 49, "trial": 17, "rt": 606, "response": "Alpha"}, "16": {"stimulus": 74, "trial": 16, "rt": 1019, "response": "Beta"}, "19": {"stimulus": 72, "trial": 19, "rt": 947, "response": "Beta"}, "18": {"stimulus": 4, "trial": 18, "rt": 1144, "response": "Alpha"}, "31": {"stimulus": 5, "trial": 31, "rt": 726, "response": "Alpha"}, "30": {"stimulus": 70, "trial": 30, "rt": 3652, "response": "Beta"}, "37": {"stimulus": 41, "trial": 37, "rt": 726, "response": "Alpha"}, "36": {"stimulus": 67, "trial": 36, "rt": 1023, "response": "Alpha"}, "35": {"stimulus": 52, "trial": 35, "rt": 686, "response": "Alpha"}, "34": {"stimulus": 61, "trial": 34, "rt": 734, "response": "Alpha"}, "33": {"stimulus": 17, "trial": 33, "rt": 663, "response": "Alpha"}, "55": {"stimulus": 73, "trial": 55, "rt": 1255, "response": "Beta"}, "74": {"stimulus": 40, "trial": 74, "rt": 734, "response": "Alpha"}, "32": {"stimulus": 22, "trial": 32, "rt": 670, "response": "Alpha"}, "57": {"stimulus": 25, "trial": 57, "rt": 686, "response": "Alpha"}, "50": {"stimulus": 24, "trial": 50, "rt": 835, "response": "Alpha"}}}