{"generation": {"1": {"stimulus": 71, "trial": 1, "rt": 11857}, "0": {"stimulus": 80, "trial": 0, "rt": 21314}, "3": {"stimulus": 53, "trial": 3, "rt": 8814}, "2": {"stimulus": 62, "trial": 2, "rt": 11623}}, "info": {"finish": 1482184021062, "participant": 178, "exposed": true, "lab": false, "start": 1482183744197, "counterbalance": 5, "condition": "Middle", "browser": {"platform": "Win32", "userAgent": "Mozilla/5.0 (Windows NT 10.0; WOW64) AppleWebKit/537.36 (KHTML, like Gecko) Chrome/55.0.2883.87 Safari/537.36"}}, "experiment": {"Paradigm": "TACL", "Stimuli": "Size-Color Squares", "Experiment": "Generating-Categories"}, "observation": {"11": {"stimulus": 30, "trial": 11, "rt": 2129}, "10": {"stimulus": 32, "trial": 10, "rt": 2823}, "1": {"stimulus": 50, "trial": 1, "rt": 5034}, "0": {"stimulus": 32, "trial": 0, "rt": 11446}, "3": {"stimulus": 30, "trial": 3, "rt": 2733}, "2": {"stimulus": 48, "trial": 2, "rt": 6399}, "5": {"stimulus": 50, "trial": 5, "rt": 2293}, "4": {"stimulus": 32, "trial": 4, "rt": 1872}, "7": {"stimulus": 30, "trial": 7, "rt": 1816}, "6": {"stimulus": 48, "trial": 6, "rt": 1645}, "9": {"stimulus": 50, "trial": 9, "rt": 2252}, "8": {"stimulus": 48, "trial": 8, "rt": 1988}}, "generalization": {"56": {"stimulus": 57, "trial": 56, "rt": 837, "response": "Alpha"}, "77": {"stimulus": 51, "trial": 77, "rt": 847, "response": "Alpha"}, "54": {"stimulus": 56, "trial": 54, "rt": 599, "response": "Alpha"}, "42": {"stimulus": 76, "trial": 42, "rt": 1128, "response": "Alpha"}, "48": {"stimulus": 55, "trial": 48, "rt": 707, "response": "Alpha"}, "43": {"stimulus": 63, "trial": 43, "rt": 1007, "response": "Alpha"}, "60": {"stimulus": 45, "trial": 60, "rt": 583, "response": "Alpha"}, "61": {"stimulus": 52, "trial": 61, "rt": 1081, "response": "Alpha"}, "62": {"stimulus": 21, "trial": 62, "rt": 730, "response": "Alpha"}, "63": {"stimulus": 5, "trial": 63, "rt": 746, "response": "Alpha"}, "64": {"stimulus": 36, "trial": 64, "rt": 652, "response": "Alpha"}, "49": {"stimulus": 19, "trial": 49, "rt": 592, "response": "Alpha"}, "66": {"stimulus": 0, "trial": 66, "rt": 598, "response": "Alpha"}, "67": {"stimulus": 58, "trial": 67, "rt": 614, "response": "Alpha"}, "68": {"stimulus": 38, "trial": 68, "rt": 621, "response": "Alpha"}, "69": {"stimulus": 42, "trial": 69, "rt": 2182, "response": "Alpha"}, "80": {"stimulus": 9, "trial": 80, "rt": 550, "response": "Alpha"}, "52": {"stimulus": 34, "trial": 52, "rt": 1958, "response": "Beta"}, "53": {"stimulus": 59, "trial": 53, "rt": 1098, "response": "Alpha"}, "24": {"stimulus": 1, "trial": 24, "rt": 874, "response": "Alpha"}, "25": {"stimulus": 79, "trial": 25, "rt": 6077, "response": "Beta"}, "26": {"stimulus": 72, "trial": 26, "rt": 676, "response": "Alpha"}, "27": {"stimulus": 40, "trial": 27, "rt": 914, "response": "Alpha"}, "20": {"stimulus": 78, "trial": 20, "rt": 4071, "response": "Alpha"}, "21": {"stimulus": 49, "trial": 21, "rt": 1336, "response": "Alpha"}, "22": {"stimulus": 71, "trial": 22, "rt": 1569, "response": "Beta"}, "23": {"stimulus": 48, "trial": 23, "rt": 1214, "response": "Alpha"}, "46": {"stimulus": 43, "trial": 46, "rt": 5967, "response": "Beta"}, "47": {"stimulus": 74, "trial": 47, "rt": 927, "response": "Alpha"}, "44": {"stimulus": 3, "trial": 44, "rt": 947, "response": "Alpha"}, "45": {"stimulus": 2, "trial": 45, "rt": 590, "response": "Alpha"}, "28": {"stimulus": 29, "trial": 28, "rt": 621, "response": "Alpha"}, "29": {"stimulus": 77, "trial": 29, "rt": 1988, "response": "Alpha"}, "40": {"stimulus": 15, "trial": 40, "rt": 1994, "response": "Alpha"}, "41": {"stimulus": 73, "trial": 41, "rt": 991, "response": "Alpha"}, "1": {"stimulus": 12, "trial": 1, "rt": 1556, "response": "Alpha"}, "0": {"stimulus": 22, "trial": 0, "rt": 2523, "response": "Alpha"}, "3": {"stimulus": 60, "trial": 3, "rt": 4646, "response": "Alpha"}, "2": {"stimulus": 25, "trial": 2, "rt": 1667, "response": "Beta"}, "5": {"stimulus": 44, "trial": 5, "rt": 1310, "response": "Beta"}, "4": {"stimulus": 28, "trial": 4, "rt": 1249, "response": "Alpha"}, "7": {"stimulus": 37, "trial": 7, "rt": 1005, "response": "Alpha"}, "6": {"stimulus": 11, "trial": 6, "rt": 1331, "response": "Alpha"}, "9": {"stimulus": 46, "trial": 9, "rt": 888, "response": "Alpha"}, "8": {"stimulus": 14, "trial": 8, "rt": 1558, "response": "Alpha"}, "78": {"stimulus": 30, "trial": 78, "rt": 550, "response": "Alpha"}, "51": {"stimulus": 67, "trial": 51, "rt": 768, "response": "Alpha"}, "39": {"stimulus": 7, "trial": 39, "rt": 1198, "response": "Beta"}, "65": {"stimulus": 75, "trial": 65, "rt": 599, "response": "Alpha"}, "76": {"stimulus": 18, "trial": 76, "rt": 494, "response": "Alpha"}, "75": {"stimulus": 31, "trial": 75, "rt": 656, "response": "Alpha"}, "38": {"stimulus": 23, "trial": 38, "rt": 1025, "response": "Alpha"}, "73": {"stimulus": 64, "trial": 73, "rt": 817, "response": "Alpha"}, "72": {"stimulus": 4, "trial": 72, "rt": 695, "response": "Alpha"}, "71": {"stimulus": 16, "trial": 71, "rt": 1743, "response": "Beta"}, "70": {"stimulus": 54, "trial": 70, "rt": 893, "response": "Alpha"}, "59": {"stimulus": 6, "trial": 59, "rt": 1121, "response": "Alpha"}, "79": {"stimulus": 53, "trial": 79, "rt": 1216, "response": "Beta"}, "58": {"stimulus": 35, "trial": 58, "rt": 1099, "response": "Beta"}, "11": {"stimulus": 70, "trial": 11, "rt": 1639, "response": "Beta"}, "10": {"stimulus": 27, "trial": 10, "rt": 839, "response": "Alpha"}, "13": {"stimulus": 80, "trial": 13, "rt": 1098, "response": "Beta"}, "12": {"stimulus": 65, "trial": 12, "rt": 1144, "response": "Alpha"}, "15": {"stimulus": 24, "trial": 15, "rt": 2111, "response": "Alpha"}, "14": {"stimulus": 26, "trial": 14, "rt": 1036, "response": "Beta"}, "17": {"stimulus": 20, "trial": 17, "rt": 1035, "response": "Alpha"}, "16": {"stimulus": 10, "trial": 16, "rt": 1059, "response": "Alpha"}, "19": {"stimulus": 41, "trial": 19, "rt": 871, "response": "Alpha"}, "18": {"stimulus": 66, "trial": 18, "rt": 741, "response": "Alpha"}, "31": {"stimulus": 32, "trial": 31, "rt": 2775, "response": "Alpha"}, "30": {"stimulus": 61, "trial": 30, "rt": 2371, "response": "Beta"}, "37": {"stimulus": 62, "trial": 37, "rt": 907, "response": "Beta"}, "36": {"stimulus": 69, "trial": 36, "rt": 659, "response": "Alpha"}, "35": {"stimulus": 68, "trial": 35, "rt": 1152, "response": "Alpha"}, "34": {"stimulus": 47, "trial": 34, "rt": 911, "response": "Alpha"}, "33": {"stimulus": 17, "trial": 33, "rt": 1107, "response": "Beta"}, "55": {"stimulus": 50, "trial": 55, "rt": 667, "response": "Alpha"}, "74": {"stimulus": 39, "trial": 74, "rt": 561, "response": "Alpha"}, "32": {"stimulus": 8, "trial": 32, "rt": 2183, "response": "Beta"}, "57": {"stimulus": 33, "trial": 57, "rt": 2911, "response": "Alpha"}, "50": {"stimulus": 13, "trial": 50, "rt": 998, "response": "Alpha"}}}