{"generation": {"1": {"stimulus": 74, "trial": 1, "rt": 5248}, "0": {"stimulus": 77, "trial": 0, "rt": 11257}, "3": {"stimulus": 64, "trial": 3, "rt": 5903}, "2": {"stimulus": 72, "trial": 2, "rt": 3810}}, "info": {"finish": 1482184169319, "participant": 179, "exposed": true, "lab": false, "start": 1482183915502, "counterbalance": 0, "condition": "Bottom", "browser": {"platform": "Win32", "userAgent": "Mozilla/5.0 (Windows NT 10.0; Win64; x64) AppleWebKit/537.36 (KHTML, like Gecko) Chrome/55.0.2883.87 Safari/537.36"}}, "experiment": {"Paradigm": "TACL", "Stimuli": "Size-Color Squares", "Experiment": "Generating-Categories"}, "observation": {"11": {"stimulus": 12, "trial": 11, "rt": 858}, "10": {"stimulus": 30, "trial": 10, "rt": 901}, "1": {"stimulus": 12, "trial": 1, "rt": 1767}, "0": {"stimulus": 32, "trial": 0, "rt": 2288}, "3": {"stimulus": 30, "trial": 3, "rt": 1234}, "2": {"stimulus": 14, "trial": 2, "rt": 1570}, "5": {"stimulus": 30, "trial": 5, "rt": 1424}, "4": {"stimulus": 32, "trial": 4, "rt": 1112}, "7": {"stimulus": 12, "trial": 7, "rt": 894}, "6": {"stimulus": 14, "trial": 6, "rt": 1303}, "9": {"stimulus": 32, "trial": 9, "rt": 1221}, "8": {"stimulus": 14, "trial": 8, "rt": 894}}, "generalization": {"56": {"stimulus": 44, "trial": 56, "rt": 934, "response": "Alpha"}, "77": {"stimulus": 16, "trial": 77, "rt": 736, "response": "Alpha"}, "54": {"stimulus": 1, "trial": 54, "rt": 2627, "response": "Beta"}, "42": {"stimulus": 31, "trial": 42, "rt": 1293, "response": "Alpha"}, "48": {"stimulus": 49, "trial": 48, "rt": 1073, "response": "Alpha"}, "43": {"stimulus": 7, "trial": 43, "rt": 742, "response": "Alpha"}, "60": {"stimulus": 25, "trial": 60, "rt": 716, "response": "Alpha"}, "61": {"stimulus": 21, "trial": 61, "rt": 977, "response": "Beta"}, "62": {"stimulus": 11, "trial": 62, "rt": 696, "response": "Beta"}, "63": {"stimulus": 38, "trial": 63, "rt": 680, "response": "Beta"}, "64": {"stimulus": 74, "trial": 64, "rt": 845, "response": "Beta"}, "49": {"stimulus": 62, "trial": 49, "rt": 911, "response": "Alpha"}, "66": {"stimulus": 72, "trial": 66, "rt": 1744, "response": "Beta"}, "67": {"stimulus": 27, "trial": 67, "rt": 1002, "response": "Beta"}, "68": {"stimulus": 77, "trial": 68, "rt": 1453, "response": "Beta"}, "69": {"stimulus": 54, "trial": 69, "rt": 975, "response": "Beta"}, "80": {"stimulus": 53, "trial": 80, "rt": 589, "response": "Beta"}, "52": {"stimulus": 51, "trial": 52, "rt": 1151, "response": "Alpha"}, "53": {"stimulus": 79, "trial": 53, "rt": 956, "response": "Beta"}, "24": {"stimulus": 50, "trial": 24, "rt": 820, "response": "Alpha"}, "25": {"stimulus": 66, "trial": 25, "rt": 1137, "response": "Beta"}, "26": {"stimulus": 0, "trial": 26, "rt": 1133, "response": "Beta"}, "27": {"stimulus": 43, "trial": 27, "rt": 1207, "response": "Alpha"}, "20": {"stimulus": 60, "trial": 20, "rt": 778, "response": "Beta"}, "21": {"stimulus": 17, "trial": 21, "rt": 1118, "response": "Alpha"}, "22": {"stimulus": 42, "trial": 22, "rt": 1057, "response": "Alpha"}, "23": {"stimulus": 6, "trial": 23, "rt": 963, "response": "Alpha"}, "46": {"stimulus": 39, "trial": 46, "rt": 799, "response": "Alpha"}, "47": {"stimulus": 10, "trial": 47, "rt": 1379, "response": "Beta"}, "44": {"stimulus": 75, "trial": 44, "rt": 1163, "response": "Beta"}, "45": {"stimulus": 22, "trial": 45, "rt": 897, "response": "Alpha"}, "28": {"stimulus": 78, "trial": 28, "rt": 1114, "response": "Beta"}, "29": {"stimulus": 56, "trial": 29, "rt": 723, "response": "Beta"}, "40": {"stimulus": 68, "trial": 40, "rt": 898, "response": "Beta"}, "41": {"stimulus": 36, "trial": 41, "rt": 820, "response": "Beta"}, "1": {"stimulus": 61, "trial": 1, "rt": 1574, "response": "Beta"}, "0": {"stimulus": 19, "trial": 0, "rt": 1613, "response": "Alpha"}, "3": {"stimulus": 69, "trial": 3, "rt": 2041, "response": "Beta"}, "2": {"stimulus": 41, "trial": 2, "rt": 1297, "response": "Alpha"}, "5": {"stimulus": 73, "trial": 5, "rt": 1012, "response": "Beta"}, "4": {"stimulus": 37, "trial": 4, "rt": 1959, "response": "Beta"}, "7": {"stimulus": 8, "trial": 7, "rt": 1051, "response": "Alpha"}, "6": {"stimulus": 15, "trial": 6, "rt": 1147, "response": "Alpha"}, "9": {"stimulus": 26, "trial": 9, "rt": 785, "response": "Alpha"}, "8": {"stimulus": 76, "trial": 8, "rt": 995, "response": "Alpha"}, "78": {"stimulus": 57, "trial": 78, "rt": 1418, "response": "Alpha"}, "51": {"stimulus": 67, "trial": 51, "rt": 1712, "response": "Beta"}, "39": {"stimulus": 80, "trial": 39, "rt": 1075, "response": "Beta"}, "65": {"stimulus": 13, "trial": 65, "rt": 1377, "response": "Alpha"}, "76": {"stimulus": 29, "trial": 76, "rt": 980, "response": "Alpha"}, "75": {"stimulus": 55, "trial": 75, "rt": 748, "response": "Alpha"}, "38": {"stimulus": 30, "trial": 38, "rt": 995, "response": "Alpha"}, "73": {"stimulus": 46, "trial": 73, "rt": 931, "response": "Alpha"}, "72": {"stimulus": 59, "trial": 72, "rt": 1007, "response": "Alpha"}, "71": {"stimulus": 64, "trial": 71, "rt": 1257, "response": "Beta"}, "70": {"stimulus": 9, "trial": 70, "rt": 1127, "response": "Alpha"}, "59": {"stimulus": 40, "trial": 59, "rt": 932, "response": "Alpha"}, "79": {"stimulus": 71, "trial": 79, "rt": 909, "response": "Beta"}, "58": {"stimulus": 3, "trial": 58, "rt": 1431, "response": "Alpha"}, "11": {"stimulus": 28, "trial": 11, "rt": 1070, "response": "Beta"}, "10": {"stimulus": 35, "trial": 10, "rt": 915, "response": "Alpha"}, "13": {"stimulus": 47, "trial": 13, "rt": 1049, "response": "Alpha"}, "12": {"stimulus": 52, "trial": 12, "rt": 1027, "response": "Alpha"}, "15": {"stimulus": 20, "trial": 15, "rt": 1031, "response": "Alpha"}, "14": {"stimulus": 70, "trial": 14, "rt": 1316, "response": "Beta"}, "17": {"stimulus": 4, "trial": 17, "rt": 820, "response": "Alpha"}, "16": {"stimulus": 58, "trial": 16, "rt": 1019, "response": "Alpha"}, "19": {"stimulus": 63, "trial": 19, "rt": 1013, "response": "Beta"}, "18": {"stimulus": 12, "trial": 18, "rt": 826, "response": "Alpha"}, "31": {"stimulus": 24, "trial": 31, "rt": 741, "response": "Alpha"}, "30": {"stimulus": 34, "trial": 30, "rt": 827, "response": "Alpha"}, "37": {"stimulus": 33, "trial": 37, "rt": 1107, "response": "Alpha"}, "36": {"stimulus": 18, "trial": 36, "rt": 891, "response": "Beta"}, "35": {"stimulus": 45, "trial": 35, "rt": 987, "response": "Beta"}, "34": {"stimulus": 2, "trial": 34, "rt": 1421, "response": "Beta"}, "33": {"stimulus": 5, "trial": 33, "rt": 844, "response": "Alpha"}, "55": {"stimulus": 23, "trial": 55, "rt": 948, "response": "Alpha"}, "74": {"stimulus": 48, "trial": 74, "rt": 843, "response": "Alpha"}, "32": {"stimulus": 14, "trial": 32, "rt": 739, "response": "Alpha"}, "57": {"stimulus": 65, "trial": 57, "rt": 1732, "response": "Beta"}, "50": {"stimulus": 32, "trial": 50, "rt": 885, "response": "Alpha"}}}