{"generation": {"1": {"stimulus": 75, "trial": 1, "rt": 8694}, "0": {"stimulus": 76, "trial": 0, "rt": 15974}, "3": {"stimulus": 3, "trial": 3, "rt": 17685}, "2": {"stimulus": 5, "trial": 2, "rt": 5792}}, "info": {"finish": 1482184721912, "participant": 180, "exposed": true, "lab": false, "start": 1482184132553, "counterbalance": 1, "condition": "Bottom", "browser": {"platform": "Win32", "userAgent": "Mozilla/5.0 (Windows NT 6.1; WOW64) AppleWebKit/537.36 (KHTML, like Gecko) Chrome/55.0.2883.87 Safari/537.36"}}, "experiment": {"Paradigm": "TACL", "Stimuli": "Size-Color Squares", "Experiment": "Generating-Categories"}, "observation": {"11": {"stimulus": 14, "trial": 11, "rt": 1000}, "10": {"stimulus": 30, "trial": 10, "rt": 530}, "1": {"stimulus": 30, "trial": 1, "rt": 1149}, "0": {"stimulus": 12, "trial": 0, "rt": 2564}, "3": {"stimulus": 14, "trial": 3, "rt": 3093}, "2": {"stimulus": 32, "trial": 2, "rt": 1010}, "5": {"stimulus": 32, "trial": 5, "rt": 992}, "4": {"stimulus": 14, "trial": 4, "rt": 978}, "7": {"stimulus": 12, "trial": 7, "rt": 2106}, "6": {"stimulus": 30, "trial": 6, "rt": 596}, "9": {"stimulus": 12, "trial": 9, "rt": 903}, "8": {"stimulus": 32, "trial": 8, "rt": 1421}}, "generalization": {"56": {"stimulus": 18, "trial": 56, "rt": 1068, "response": "Alpha"}, "77": {"stimulus": 29, "trial": 77, "rt": 1338, "response": "Alpha"}, "54": {"stimulus": 75, "trial": 54, "rt": 841, "response": "Beta"}, "42": {"stimulus": 74, "trial": 42, "rt": 1579, "response": "Beta"}, "48": {"stimulus": 69, "trial": 48, "rt": 824, "response": "Beta"}, "43": {"stimulus": 28, "trial": 43, "rt": 1614, "response": "Alpha"}, "60": {"stimulus": 14, "trial": 60, "rt": 3488, "response": "Alpha"}, "61": {"stimulus": 21, "trial": 61, "rt": 1269, "response": "Alpha"}, "62": {"stimulus": 39, "trial": 62, "rt": 654, "response": "Alpha"}, "63": {"stimulus": 7, "trial": 63, "rt": 655, "response": "Alpha"}, "64": {"stimulus": 59, "trial": 64, "rt": 932, "response": "Beta"}, "49": {"stimulus": 23, "trial": 49, "rt": 1492, "response": "Alpha"}, "66": {"stimulus": 49, "trial": 66, "rt": 2393, "response": "Beta"}, "67": {"stimulus": 2, "trial": 67, "rt": 872, "response": "Alpha"}, "68": {"stimulus": 65, "trial": 68, "rt": 3471, "response": "Beta"}, "69": {"stimulus": 27, "trial": 69, "rt": 2196, "response": "Alpha"}, "80": {"stimulus": 70, "trial": 80, "rt": 751, "response": "Beta"}, "52": {"stimulus": 80, "trial": 52, "rt": 824, "response": "Beta"}, "53": {"stimulus": 4, "trial": 53, "rt": 1029, "response": "Alpha"}, "24": {"stimulus": 53, "trial": 24, "rt": 1918, "response": "Beta"}, "25": {"stimulus": 20, "trial": 25, "rt": 4324, "response": "Alpha"}, "26": {"stimulus": 66, "trial": 26, "rt": 850, "response": "Beta"}, "27": {"stimulus": 36, "trial": 27, "rt": 734, "response": "Alpha"}, "20": {"stimulus": 54, "trial": 20, "rt": 1042, "response": "Beta"}, "21": {"stimulus": 0, "trial": 21, "rt": 1980, "response": "Beta"}, "22": {"stimulus": 19, "trial": 22, "rt": 851, "response": "Alpha"}, "23": {"stimulus": 38, "trial": 23, "rt": 617, "response": "Alpha"}, "46": {"stimulus": 33, "trial": 46, "rt": 853, "response": "Alpha"}, "47": {"stimulus": 50, "trial": 47, "rt": 990, "response": "Alpha"}, "44": {"stimulus": 51, "trial": 44, "rt": 1001, "response": "Beta"}, "45": {"stimulus": 3, "trial": 45, "rt": 1682, "response": "Alpha"}, "28": {"stimulus": 52, "trial": 28, "rt": 784, "response": "Alpha"}, "29": {"stimulus": 45, "trial": 29, "rt": 900, "response": "Alpha"}, "40": {"stimulus": 76, "trial": 40, "rt": 567, "response": "Beta"}, "41": {"stimulus": 8, "trial": 41, "rt": 966, "response": "Alpha"}, "1": {"stimulus": 35, "trial": 1, "rt": 1039, "response": "Alpha"}, "0": {"stimulus": 64, "trial": 0, "rt": 1651, "response": "Beta"}, "3": {"stimulus": 71, "trial": 3, "rt": 1377, "response": "Beta"}, "2": {"stimulus": 41, "trial": 2, "rt": 871, "response": "Alpha"}, "5": {"stimulus": 10, "trial": 5, "rt": 3442, "response": "Alpha"}, "4": {"stimulus": 30, "trial": 4, "rt": 1257, "response": "Alpha"}, "7": {"stimulus": 25, "trial": 7, "rt": 1397, "response": "Alpha"}, "6": {"stimulus": 57, "trial": 6, "rt": 1325, "response": "Beta"}, "9": {"stimulus": 61, "trial": 9, "rt": 1255, "response": "Beta"}, "8": {"stimulus": 22, "trial": 8, "rt": 715, "response": "Alpha"}, "78": {"stimulus": 62, "trial": 78, "rt": 825, "response": "Beta"}, "51": {"stimulus": 16, "trial": 51, "rt": 1031, "response": "Alpha"}, "39": {"stimulus": 79, "trial": 39, "rt": 713, "response": "Beta"}, "65": {"stimulus": 6, "trial": 65, "rt": 9969, "response": "Alpha"}, "76": {"stimulus": 1, "trial": 76, "rt": 1050, "response": "Alpha"}, "75": {"stimulus": 44, "trial": 75, "rt": 676, "response": "Alpha"}, "38": {"stimulus": 42, "trial": 38, "rt": 959, "response": "Alpha"}, "73": {"stimulus": 58, "trial": 73, "rt": 2046, "response": "Beta"}, "72": {"stimulus": 11, "trial": 72, "rt": 1040, "response": "Alpha"}, "71": {"stimulus": 24, "trial": 71, "rt": 2187, "response": "Alpha"}, "70": {"stimulus": 77, "trial": 70, "rt": 1405, "response": "Beta"}, "59": {"stimulus": 68, "trial": 59, "rt": 735, "response": "Beta"}, "79": {"stimulus": 9, "trial": 79, "rt": 821, "response": "Alpha"}, "58": {"stimulus": 63, "trial": 58, "rt": 880, "response": "Beta"}, "11": {"stimulus": 13, "trial": 11, "rt": 3113, "response": "Alpha"}, "10": {"stimulus": 48, "trial": 10, "rt": 1348, "response": "Beta"}, "13": {"stimulus": 12, "trial": 13, "rt": 756, "response": "Alpha"}, "12": {"stimulus": 31, "trial": 12, "rt": 1966, "response": "Alpha"}, "15": {"stimulus": 78, "trial": 15, "rt": 1720, "response": "Beta"}, "14": {"stimulus": 40, "trial": 14, "rt": 1220, "response": "Alpha"}, "17": {"stimulus": 37, "trial": 17, "rt": 880, "response": "Alpha"}, "16": {"stimulus": 34, "trial": 16, "rt": 135994, "response": "Alpha"}, "19": {"stimulus": 47, "trial": 19, "rt": 1895, "response": "Alpha"}, "18": {"stimulus": 46, "trial": 18, "rt": 1249, "response": "Alpha"}, "31": {"stimulus": 43, "trial": 31, "rt": 576, "response": "Beta"}, "30": {"stimulus": 60, "trial": 30, "rt": 1049, "response": "Beta"}, "37": {"stimulus": 73, "trial": 37, "rt": 845, "response": "Beta"}, "36": {"stimulus": 67, "trial": 36, "rt": 1029, "response": "Beta"}, "35": {"stimulus": 15, "trial": 35, "rt": 477, "response": "Alpha"}, "34": {"stimulus": 5, "trial": 34, "rt": 989, "response": "Alpha"}, "33": {"stimulus": 55, "trial": 33, "rt": 903, "response": "Beta"}, "55": {"stimulus": 26, "trial": 55, "rt": 1417, "response": "Alpha"}, "74": {"stimulus": 32, "trial": 74, "rt": 198931, "response": "Alpha"}, "32": {"stimulus": 72, "trial": 32, "rt": 959, "response": "Beta"}, "57": {"stimulus": 17, "trial": 57, "rt": 724, "response": "Alpha"}, "50": {"stimulus": 56, "trial": 50, "rt": 1356, "response": "Beta"}}}