{"generation": {"1": {"stimulus": 8, "trial": 1, "rt": 14815}, "0": {"stimulus": 71, "trial": 0, "rt": 5368}, "3": {"stimulus": 80, "trial": 3, "rt": 7619}, "2": {"stimulus": 17, "trial": 2, "rt": 4688}}, "info": {"finish": 1482184445136, "participant": 182, "exposed": true, "lab": false, "start": 1482184173357, "counterbalance": 7, "condition": "Middle", "browser": {"platform": "Win32", "userAgent": "Mozilla/5.0 (Windows NT 6.1; Win64; x64) AppleWebKit/537.36 (KHTML, like Gecko) Chrome/55.0.2883.87 Safari/537.36"}}, "experiment": {"Paradigm": "TACL", "Stimuli": "Size-Color Squares", "Experiment": "Generating-Categories"}, "observation": {"11": {"stimulus": 30, "trial": 11, "rt": 1138}, "10": {"stimulus": 48, "trial": 10, "rt": 1024}, "1": {"stimulus": 32, "trial": 1, "rt": 1649}, "0": {"stimulus": 30, "trial": 0, "rt": 1487}, "3": {"stimulus": 50, "trial": 3, "rt": 1610}, "2": {"stimulus": 48, "trial": 2, "rt": 1139}, "5": {"stimulus": 50, "trial": 5, "rt": 1007}, "4": {"stimulus": 32, "trial": 4, "rt": 1231}, "7": {"stimulus": 30, "trial": 7, "rt": 1035}, "6": {"stimulus": 48, "trial": 6, "rt": 1589}, "9": {"stimulus": 32, "trial": 9, "rt": 1033}, "8": {"stimulus": 50, "trial": 8, "rt": 1014}}, "generalization": {"56": {"stimulus": 49, "trial": 56, "rt": 1299, "response": "Alpha"}, "77": {"stimulus": 14, "trial": 77, "rt": 834, "response": "Alpha"}, "54": {"stimulus": 29, "trial": 54, "rt": 1919, "response": "Alpha"}, "42": {"stimulus": 43, "trial": 42, "rt": 1438, "response": "Beta"}, "48": {"stimulus": 0, "trial": 48, "rt": 1742, "response": "Alpha"}, "43": {"stimulus": 5, "trial": 43, "rt": 1191, "response": "Alpha"}, "60": {"stimulus": 25, "trial": 60, "rt": 5024, "response": "Beta"}, "61": {"stimulus": 36, "trial": 61, "rt": 1219, "response": "Alpha"}, "62": {"stimulus": 12, "trial": 62, "rt": 1003, "response": "Alpha"}, "63": {"stimulus": 31, "trial": 63, "rt": 1053, "response": "Alpha"}, "64": {"stimulus": 37, "trial": 64, "rt": 1058, "response": "Alpha"}, "49": {"stimulus": 9, "trial": 49, "rt": 749, "response": "Alpha"}, "66": {"stimulus": 73, "trial": 66, "rt": 1712, "response": "Alpha"}, "67": {"stimulus": 77, "trial": 67, "rt": 970, "response": "Alpha"}, "68": {"stimulus": 54, "trial": 68, "rt": 848, "response": "Alpha"}, "69": {"stimulus": 41, "trial": 69, "rt": 1031, "response": "Alpha"}, "80": {"stimulus": 15, "trial": 80, "rt": 1067, "response": "Alpha"}, "52": {"stimulus": 19, "trial": 52, "rt": 1646, "response": "Alpha"}, "53": {"stimulus": 20, "trial": 53, "rt": 1868, "response": "Alpha"}, "24": {"stimulus": 8, "trial": 24, "rt": 2006, "response": "Beta"}, "25": {"stimulus": 27, "trial": 25, "rt": 10016, "response": "Alpha"}, "26": {"stimulus": 69, "trial": 26, "rt": 1545, "response": "Alpha"}, "27": {"stimulus": 56, "trial": 27, "rt": 2957, "response": "Alpha"}, "20": {"stimulus": 11, "trial": 20, "rt": 771, "response": "Alpha"}, "21": {"stimulus": 75, "trial": 21, "rt": 1053, "response": "Alpha"}, "22": {"stimulus": 70, "trial": 22, "rt": 2199, "response": "Beta"}, "23": {"stimulus": 39, "trial": 23, "rt": 1002, "response": "Alpha"}, "46": {"stimulus": 47, "trial": 46, "rt": 1258, "response": "Alpha"}, "47": {"stimulus": 76, "trial": 47, "rt": 1208, "response": "Alpha"}, "44": {"stimulus": 74, "trial": 44, "rt": 1769, "response": "Alpha"}, "45": {"stimulus": 61, "trial": 45, "rt": 4615, "response": "Beta"}, "28": {"stimulus": 24, "trial": 28, "rt": 3791, "response": "Alpha"}, "29": {"stimulus": 45, "trial": 29, "rt": 1438, "response": "Alpha"}, "40": {"stimulus": 28, "trial": 40, "rt": 1098, "response": "Alpha"}, "41": {"stimulus": 21, "trial": 41, "rt": 1216, "response": "Alpha"}, "1": {"stimulus": 65, "trial": 1, "rt": 734, "response": "Alpha"}, "0": {"stimulus": 79, "trial": 0, "rt": 1342, "response": "Alpha"}, "3": {"stimulus": 78, "trial": 3, "rt": 1652, "response": "Alpha"}, "2": {"stimulus": 59, "trial": 2, "rt": 561, "response": "Alpha"}, "5": {"stimulus": 16, "trial": 5, "rt": 1231, "response": "Alpha"}, "4": {"stimulus": 58, "trial": 4, "rt": 510, "response": "Alpha"}, "7": {"stimulus": 53, "trial": 7, "rt": 1178, "response": "Beta"}, "6": {"stimulus": 68, "trial": 6, "rt": 534, "response": "Alpha"}, "9": {"stimulus": 38, "trial": 9, "rt": 704, "response": "Alpha"}, "8": {"stimulus": 17, "trial": 8, "rt": 893, "response": "Beta"}, "78": {"stimulus": 80, "trial": 78, "rt": 948, "response": "Beta"}, "51": {"stimulus": 48, "trial": 51, "rt": 1289, "response": "Alpha"}, "39": {"stimulus": 22, "trial": 39, "rt": 1215, "response": "Alpha"}, "65": {"stimulus": 10, "trial": 65, "rt": 1751, "response": "Alpha"}, "76": {"stimulus": 40, "trial": 76, "rt": 1151, "response": "Alpha"}, "75": {"stimulus": 63, "trial": 75, "rt": 988, "response": "Alpha"}, "38": {"stimulus": 71, "trial": 38, "rt": 1388, "response": "Beta"}, "73": {"stimulus": 26, "trial": 73, "rt": 1018, "response": "Beta"}, "72": {"stimulus": 7, "trial": 72, "rt": 908, "response": "Beta"}, "71": {"stimulus": 23, "trial": 71, "rt": 801, "response": "Alpha"}, "70": {"stimulus": 2, "trial": 70, "rt": 772, "response": "Alpha"}, "59": {"stimulus": 34, "trial": 59, "rt": 1109, "response": "Beta"}, "79": {"stimulus": 4, "trial": 79, "rt": 907, "response": "Alpha"}, "58": {"stimulus": 6, "trial": 58, "rt": 1355, "response": "Alpha"}, "11": {"stimulus": 51, "trial": 11, "rt": 1827, "response": "Alpha"}, "10": {"stimulus": 46, "trial": 10, "rt": 761, "response": "Alpha"}, "13": {"stimulus": 30, "trial": 13, "rt": 1642, "response": "Alpha"}, "12": {"stimulus": 42, "trial": 12, "rt": 661, "response": "Alpha"}, "15": {"stimulus": 57, "trial": 15, "rt": 600, "response": "Alpha"}, "14": {"stimulus": 18, "trial": 14, "rt": 1165, "response": "Alpha"}, "17": {"stimulus": 55, "trial": 17, "rt": 4558, "response": "Alpha"}, "16": {"stimulus": 66, "trial": 16, "rt": 1361, "response": "Alpha"}, "19": {"stimulus": 67, "trial": 19, "rt": 17536, "response": "Alpha"}, "18": {"stimulus": 60, "trial": 18, "rt": 7804, "response": "Alpha"}, "31": {"stimulus": 64, "trial": 31, "rt": 1412, "response": "Alpha"}, "30": {"stimulus": 3, "trial": 30, "rt": 2446, "response": "Alpha"}, "37": {"stimulus": 72, "trial": 37, "rt": 1235, "response": "Alpha"}, "36": {"stimulus": 35, "trial": 36, "rt": 1123, "response": "Beta"}, "35": {"stimulus": 52, "trial": 35, "rt": 1138, "response": "Beta"}, "34": {"stimulus": 32, "trial": 34, "rt": 784, "response": "Alpha"}, "33": {"stimulus": 13, "trial": 33, "rt": 645, "response": "Alpha"}, "55": {"stimulus": 44, "trial": 55, "rt": 1352, "response": "Beta"}, "74": {"stimulus": 50, "trial": 74, "rt": 1025, "response": "Alpha"}, "32": {"stimulus": 33, "trial": 32, "rt": 1158, "response": "Alpha"}, "57": {"stimulus": 1, "trial": 57, "rt": 737, "response": "Alpha"}, "50": {"stimulus": 62, "trial": 50, "rt": 1696, "response": "Beta"}}}