{"generation": {"1": {"stimulus": 80, "trial": 1, "rt": 9457}, "0": {"stimulus": 72, "trial": 0, "rt": 16902}, "3": {"stimulus": 74, "trial": 3, "rt": 8966}, "2": {"stimulus": 61, "trial": 2, "rt": 7514}}, "info": {"finish": 1482174653821, "participant": 19, "exposed": true, "lab": false, "start": 1482174384178, "counterbalance": 6, "condition": "Middle", "browser": {"platform": "Win32", "userAgent": "Mozilla/5.0 (Windows NT 10.0; WOW64) AppleWebKit/537.36 (KHTML, like Gecko) Chrome/54.0.2840.99 Safari/537.36"}}, "experiment": {"Paradigm": "TACL", "Stimuli": "Size-Color Squares", "Experiment": "Generating-Categories"}, "observation": {"11": {"stimulus": 30, "trial": 11, "rt": 930}, "10": {"stimulus": 32, "trial": 10, "rt": 1011}, "1": {"stimulus": 32, "trial": 1, "rt": 3481}, "0": {"stimulus": 30, "trial": 0, "rt": 4963}, "3": {"stimulus": 50, "trial": 3, "rt": 889}, "2": {"stimulus": 48, "trial": 2, "rt": 1718}, "5": {"stimulus": 50, "trial": 5, "rt": 766}, "4": {"stimulus": 30, "trial": 4, "rt": 865}, "7": {"stimulus": 32, "trial": 7, "rt": 739}, "6": {"stimulus": 48, "trial": 6, "rt": 7761}, "9": {"stimulus": 50, "trial": 9, "rt": 2100}, "8": {"stimulus": 48, "trial": 8, "rt": 677}}, "generalization": {"56": {"stimulus": 72, "trial": 56, "rt": 1886, "response": "Beta"}, "77": {"stimulus": 64, "trial": 77, "rt": 1914, "response": "Beta"}, "54": {"stimulus": 66, "trial": 54, "rt": 1936, "response": "Alpha"}, "42": {"stimulus": 20, "trial": 42, "rt": 726, "response": "Alpha"}, "48": {"stimulus": 6, "trial": 48, "rt": 1688, "response": "Beta"}, "43": {"stimulus": 52, "trial": 43, "rt": 1491, "response": "Beta"}, "60": {"stimulus": 62, "trial": 60, "rt": 1519, "response": "Beta"}, "61": {"stimulus": 4, "trial": 61, "rt": 2837, "response": "Alpha"}, "62": {"stimulus": 11, "trial": 62, "rt": 728, "response": "Alpha"}, "63": {"stimulus": 38, "trial": 63, "rt": 959, "response": "Alpha"}, "64": {"stimulus": 7, "trial": 64, "rt": 1192, "response": "Beta"}, "49": {"stimulus": 18, "trial": 49, "rt": 812, "response": "Beta"}, "66": {"stimulus": 29, "trial": 66, "rt": 1766, "response": "Alpha"}, "67": {"stimulus": 54, "trial": 67, "rt": 1664, "response": "Beta"}, "68": {"stimulus": 70, "trial": 68, "rt": 1368, "response": "Alpha"}, "69": {"stimulus": 28, "trial": 69, "rt": 1159, "response": "Beta"}, "80": {"stimulus": 43, "trial": 80, "rt": 1380, "response": "Beta"}, "52": {"stimulus": 46, "trial": 52, "rt": 1122, "response": "Beta"}, "53": {"stimulus": 22, "trial": 53, "rt": 1369, "response": "Alpha"}, "24": {"stimulus": 25, "trial": 24, "rt": 1320, "response": "Beta"}, "25": {"stimulus": 58, "trial": 25, "rt": 701, "response": "Beta"}, "26": {"stimulus": 27, "trial": 26, "rt": 700, "response": "Beta"}, "27": {"stimulus": 73, "trial": 27, "rt": 820, "response": "Beta"}, "20": {"stimulus": 32, "trial": 20, "rt": 3670, "response": "Alpha"}, "21": {"stimulus": 39, "trial": 21, "rt": 1474, "response": "Beta"}, "22": {"stimulus": 77, "trial": 22, "rt": 1881, "response": "Alpha"}, "23": {"stimulus": 37, "trial": 23, "rt": 1059, "response": "Alpha"}, "46": {"stimulus": 78, "trial": 46, "rt": 1449, "response": "Beta"}, "47": {"stimulus": 49, "trial": 47, "rt": 1389, "response": "Alpha"}, "44": {"stimulus": 17, "trial": 44, "rt": 850, "response": "Beta"}, "45": {"stimulus": 41, "trial": 45, "rt": 1163, "response": "Beta"}, "28": {"stimulus": 61, "trial": 28, "rt": 702, "response": "Beta"}, "29": {"stimulus": 40, "trial": 29, "rt": 1091, "response": "Beta"}, "40": {"stimulus": 31, "trial": 40, "rt": 861, "response": "Beta"}, "41": {"stimulus": 47, "trial": 41, "rt": 1672, "response": "Alpha"}, "1": {"stimulus": 26, "trial": 1, "rt": 2004, "response": "Beta"}, "0": {"stimulus": 23, "trial": 0, "rt": 1705, "response": "Alpha"}, "3": {"stimulus": 71, "trial": 3, "rt": 937, "response": "Beta"}, "2": {"stimulus": 15, "trial": 2, "rt": 1178, "response": "Beta"}, "5": {"stimulus": 2, "trial": 5, "rt": 1517, "response": "Beta"}, "4": {"stimulus": 13, "trial": 4, "rt": 1170, "response": "Alpha"}, "7": {"stimulus": 65, "trial": 7, "rt": 838, "response": "Alpha"}, "6": {"stimulus": 57, "trial": 6, "rt": 1246, "response": "Alpha"}, "9": {"stimulus": 12, "trial": 9, "rt": 1510, "response": "Alpha"}, "8": {"stimulus": 69, "trial": 8, "rt": 2269, "response": "Beta"}, "78": {"stimulus": 0, "trial": 78, "rt": 715, "response": "Beta"}, "51": {"stimulus": 3, "trial": 51, "rt": 1775, "response": "Alpha"}, "39": {"stimulus": 45, "trial": 39, "rt": 1299, "response": "Beta"}, "65": {"stimulus": 80, "trial": 65, "rt": 663, "response": "Beta"}, "76": {"stimulus": 59, "trial": 76, "rt": 2212, "response": "Alpha"}, "75": {"stimulus": 63, "trial": 75, "rt": 1532, "response": "Beta"}, "38": {"stimulus": 21, "trial": 38, "rt": 1695, "response": "Alpha"}, "73": {"stimulus": 44, "trial": 73, "rt": 1370, "response": "Beta"}, "72": {"stimulus": 5, "trial": 72, "rt": 930, "response": "Alpha"}, "71": {"stimulus": 60, "trial": 71, "rt": 800, "response": "Alpha"}, "70": {"stimulus": 16, "trial": 70, "rt": 1531, "response": "Alpha"}, "59": {"stimulus": 42, "trial": 59, "rt": 1244, "response": "Alpha"}, "79": {"stimulus": 74, "trial": 79, "rt": 1526, "response": "Alpha"}, "58": {"stimulus": 8, "trial": 58, "rt": 2360, "response": "Alpha"}, "11": {"stimulus": 76, "trial": 11, "rt": 3371, "response": "Alpha"}, "10": {"stimulus": 19, "trial": 10, "rt": 1233, "response": "Beta"}, "13": {"stimulus": 50, "trial": 13, "rt": 1094, "response": "Alpha"}, "12": {"stimulus": 14, "trial": 12, "rt": 1512, "response": "Alpha"}, "15": {"stimulus": 53, "trial": 15, "rt": 959, "response": "Beta"}, "14": {"stimulus": 79, "trial": 14, "rt": 1309, "response": "Beta"}, "17": {"stimulus": 68, "trial": 17, "rt": 1055, "response": "Beta"}, "16": {"stimulus": 33, "trial": 16, "rt": 825, "response": "Beta"}, "19": {"stimulus": 75, "trial": 19, "rt": 1458, "response": "Alpha"}, "18": {"stimulus": 9, "trial": 18, "rt": 3603, "response": "Beta"}, "31": {"stimulus": 10, "trial": 31, "rt": 3569, "response": "Beta"}, "30": {"stimulus": 51, "trial": 30, "rt": 859, "response": "Beta"}, "37": {"stimulus": 34, "trial": 37, "rt": 984, "response": "Beta"}, "36": {"stimulus": 35, "trial": 36, "rt": 1283, "response": "Beta"}, "35": {"stimulus": 67, "trial": 35, "rt": 1270, "response": "Alpha"}, "34": {"stimulus": 36, "trial": 34, "rt": 1479, "response": "Beta"}, "33": {"stimulus": 48, "trial": 33, "rt": 1606, "response": "Alpha"}, "55": {"stimulus": 30, "trial": 55, "rt": 1405, "response": "Beta"}, "74": {"stimulus": 1, "trial": 74, "rt": 1433, "response": "Alpha"}, "32": {"stimulus": 24, "trial": 32, "rt": 1541, "response": "Beta"}, "57": {"stimulus": 55, "trial": 57, "rt": 732, "response": "Beta"}, "50": {"stimulus": 56, "trial": 50, "rt": 1086, "response": "Beta"}}}