{"generation": {"1": {"stimulus": 17, "trial": 1, "rt": 4404}, "0": {"stimulus": 8, "trial": 0, "rt": 9386}, "3": {"stimulus": 16, "trial": 3, "rt": 4690}, "2": {"stimulus": 7, "trial": 2, "rt": 4126}}, "info": {"finish": 1482174594525, "participant": 2, "exposed": true, "lab": false, "start": 1482174409390, "counterbalance": 2, "condition": "Middle", "browser": {"platform": "Win32", "userAgent": "Mozilla/5.0 (Windows NT 6.1; WOW64) AppleWebKit/537.36 (KHTML, like Gecko) Chrome/55.0.2883.87 Safari/537.36"}}, "experiment": {"Paradigm": "TACL", "Stimuli": "Size-Color Squares", "Experiment": "Generating-Categories"}, "observation": {"11": {"stimulus": 32, "trial": 11, "rt": 801}, "10": {"stimulus": 48, "trial": 10, "rt": 888}, "1": {"stimulus": 32, "trial": 1, "rt": 1275}, "0": {"stimulus": 48, "trial": 0, "rt": 1741}, "3": {"stimulus": 50, "trial": 3, "rt": 969}, "2": {"stimulus": 30, "trial": 2, "rt": 1068}, "5": {"stimulus": 50, "trial": 5, "rt": 957}, "4": {"stimulus": 32, "trial": 4, "rt": 1045}, "7": {"stimulus": 48, "trial": 7, "rt": 932}, "6": {"stimulus": 30, "trial": 6, "rt": 949}, "9": {"stimulus": 50, "trial": 9, "rt": 938}, "8": {"stimulus": 30, "trial": 8, "rt": 953}}, "generalization": {"56": {"stimulus": 70, "trial": 56, "rt": 554, "response": "Alpha"}, "77": {"stimulus": 67, "trial": 77, "rt": 821, "response": "Alpha"}, "54": {"stimulus": 74, "trial": 54, "rt": 1283, "response": "Beta"}, "42": {"stimulus": 53, "trial": 42, "rt": 677, "response": "Alpha"}, "48": {"stimulus": 65, "trial": 48, "rt": 624, "response": "Beta"}, "43": {"stimulus": 80, "trial": 43, "rt": 711, "response": "Alpha"}, "60": {"stimulus": 26, "trial": 60, "rt": 584, "response": "Alpha"}, "61": {"stimulus": 51, "trial": 61, "rt": 461, "response": "Alpha"}, "62": {"stimulus": 17, "trial": 62, "rt": 488, "response": "Alpha"}, "63": {"stimulus": 49, "trial": 63, "rt": 838, "response": "Alpha"}, "64": {"stimulus": 66, "trial": 64, "rt": 493, "response": "Alpha"}, "49": {"stimulus": 52, "trial": 49, "rt": 559, "response": "Alpha"}, "66": {"stimulus": 77, "trial": 66, "rt": 780, "response": "Alpha"}, "67": {"stimulus": 56, "trial": 67, "rt": 923, "response": "Beta"}, "68": {"stimulus": 59, "trial": 68, "rt": 582, "response": "Alpha"}, "69": {"stimulus": 54, "trial": 69, "rt": 581, "response": "Beta"}, "80": {"stimulus": 60, "trial": 80, "rt": 444, "response": "Alpha"}, "52": {"stimulus": 23, "trial": 52, "rt": 861, "response": "Alpha"}, "53": {"stimulus": 19, "trial": 53, "rt": 961, "response": "Beta"}, "24": {"stimulus": 64, "trial": 24, "rt": 608, "response": "Beta"}, "25": {"stimulus": 61, "trial": 25, "rt": 667, "response": "Alpha"}, "26": {"stimulus": 62, "trial": 26, "rt": 509, "response": "Alpha"}, "27": {"stimulus": 0, "trial": 27, "rt": 641, "response": "Beta"}, "20": {"stimulus": 57, "trial": 20, "rt": 1794, "response": "Alpha"}, "21": {"stimulus": 2, "trial": 21, "rt": 521, "response": "Beta"}, "22": {"stimulus": 37, "trial": 22, "rt": 649, "response": "Beta"}, "23": {"stimulus": 48, "trial": 23, "rt": 613, "response": "Beta"}, "46": {"stimulus": 20, "trial": 46, "rt": 637, "response": "Beta"}, "47": {"stimulus": 38, "trial": 47, "rt": 1751, "response": "Beta"}, "44": {"stimulus": 47, "trial": 44, "rt": 1102, "response": "Beta"}, "45": {"stimulus": 35, "trial": 45, "rt": 592, "response": "Alpha"}, "28": {"stimulus": 14, "trial": 28, "rt": 1370, "response": "Beta"}, "29": {"stimulus": 79, "trial": 29, "rt": 562, "response": "Alpha"}, "40": {"stimulus": 3, "trial": 40, "rt": 854, "response": "Beta"}, "41": {"stimulus": 8, "trial": 41, "rt": 1808, "response": "Beta"}, "1": {"stimulus": 69, "trial": 1, "rt": 1391, "response": "Alpha"}, "0": {"stimulus": 31, "trial": 0, "rt": 1268, "response": "Alpha"}, "3": {"stimulus": 50, "trial": 3, "rt": 996, "response": "Alpha"}, "2": {"stimulus": 45, "trial": 2, "rt": 991, "response": "Beta"}, "5": {"stimulus": 40, "trial": 5, "rt": 811, "response": "Alpha"}, "4": {"stimulus": 21, "trial": 4, "rt": 1164, "response": "Alpha"}, "7": {"stimulus": 39, "trial": 7, "rt": 515, "response": "Alpha"}, "6": {"stimulus": 42, "trial": 6, "rt": 529, "response": "Alpha"}, "9": {"stimulus": 13, "trial": 9, "rt": 952, "response": "Beta"}, "8": {"stimulus": 24, "trial": 8, "rt": 929, "response": "Alpha"}, "78": {"stimulus": 76, "trial": 78, "rt": 663, "response": "Alpha"}, "51": {"stimulus": 36, "trial": 51, "rt": 645, "response": "Beta"}, "39": {"stimulus": 6, "trial": 39, "rt": 516, "response": "Alpha"}, "65": {"stimulus": 75, "trial": 65, "rt": 788, "response": "Alpha"}, "76": {"stimulus": 7, "trial": 76, "rt": 632, "response": "Beta"}, "75": {"stimulus": 41, "trial": 75, "rt": 427, "response": "Alpha"}, "38": {"stimulus": 12, "trial": 38, "rt": 642, "response": "Beta"}, "73": {"stimulus": 9, "trial": 73, "rt": 387, "response": "Beta"}, "72": {"stimulus": 18, "trial": 72, "rt": 414, "response": "Beta"}, "71": {"stimulus": 27, "trial": 71, "rt": 476, "response": "Beta"}, "70": {"stimulus": 10, "trial": 70, "rt": 633, "response": "Beta"}, "59": {"stimulus": 11, "trial": 59, "rt": 649, "response": "Beta"}, "79": {"stimulus": 43, "trial": 79, "rt": 719, "response": "Alpha"}, "58": {"stimulus": 4, "trial": 58, "rt": 856, "response": "Beta"}, "11": {"stimulus": 29, "trial": 11, "rt": 833, "response": "Beta"}, "10": {"stimulus": 32, "trial": 10, "rt": 599, "response": "Alpha"}, "13": {"stimulus": 1, "trial": 13, "rt": 680, "response": "Beta"}, "12": {"stimulus": 15, "trial": 12, "rt": 784, "response": "Alpha"}, "15": {"stimulus": 5, "trial": 15, "rt": 1531, "response": "Beta"}, "14": {"stimulus": 46, "trial": 14, "rt": 877, "response": "Beta"}, "17": {"stimulus": 71, "trial": 17, "rt": 653, "response": "Alpha"}, "16": {"stimulus": 22, "trial": 16, "rt": 1239, "response": "Beta"}, "19": {"stimulus": 68, "trial": 19, "rt": 830, "response": "Alpha"}, "18": {"stimulus": 44, "trial": 18, "rt": 596, "response": "Alpha"}, "31": {"stimulus": 28, "trial": 31, "rt": 736, "response": "Beta"}, "30": {"stimulus": 16, "trial": 30, "rt": 515, "response": "Alpha"}, "37": {"stimulus": 73, "trial": 37, "rt": 737, "response": "Beta"}, "36": {"stimulus": 55, "trial": 36, "rt": 766, "response": "Beta"}, "35": {"stimulus": 78, "trial": 35, "rt": 532, "response": "Alpha"}, "34": {"stimulus": 72, "trial": 34, "rt": 676, "response": "Beta"}, "33": {"stimulus": 34, "trial": 33, "rt": 440, "response": "Alpha"}, "55": {"stimulus": 33, "trial": 55, "rt": 593, "response": "Alpha"}, "74": {"stimulus": 25, "trial": 74, "rt": 554, "response": "Alpha"}, "32": {"stimulus": 58, "trial": 32, "rt": 1897, "response": "Beta"}, "57": {"stimulus": 30, "trial": 57, "rt": 721, "response": "Beta"}, "50": {"stimulus": 63, "trial": 50, "rt": 602, "response": "Beta"}}}