{"generation": {"1": {"stimulus": 57, "trial": 1, "rt": 3091}, "0": {"stimulus": 59, "trial": 0, "rt": 8845}, "3": {"stimulus": 68, "trial": 3, "rt": 4837}, "2": {"stimulus": 66, "trial": 2, "rt": 5147}}, "info": {"finish": 1482174589409, "participant": 22, "exposed": true, "lab": false, "start": 1482174412905, "counterbalance": 2, "condition": "Bottom", "browser": {"platform": "Win32", "userAgent": "Mozilla/5.0 (Windows NT 6.3; WOW64) AppleWebKit/537.36 (KHTML, like Gecko) Chrome/55.0.2883.87 Safari/537.36"}}, "experiment": {"Paradigm": "TACL", "Stimuli": "Size-Color Squares", "Experiment": "Generating-Categories"}, "observation": {"11": {"stimulus": 14, "trial": 11, "rt": 693}, "10": {"stimulus": 12, "trial": 10, "rt": 527}, "1": {"stimulus": 12, "trial": 1, "rt": 1124}, "0": {"stimulus": 32, "trial": 0, "rt": 1671}, "3": {"stimulus": 14, "trial": 3, "rt": 1343}, "2": {"stimulus": 30, "trial": 2, "rt": 964}, "5": {"stimulus": 12, "trial": 5, "rt": 1104}, "4": {"stimulus": 14, "trial": 4, "rt": 995}, "7": {"stimulus": 32, "trial": 7, "rt": 1008}, "6": {"stimulus": 30, "trial": 6, "rt": 966}, "9": {"stimulus": 32, "trial": 9, "rt": 858}, "8": {"stimulus": 30, "trial": 8, "rt": 1412}}, "generalization": {"56": {"stimulus": 22, "trial": 56, "rt": 679, "response": "Alpha"}, "77": {"stimulus": 53, "trial": 77, "rt": 582, "response": "Beta"}, "54": {"stimulus": 17, "trial": 54, "rt": 572, "response": "Alpha"}, "42": {"stimulus": 31, "trial": 42, "rt": 690, "response": "Alpha"}, "48": {"stimulus": 11, "trial": 48, "rt": 554, "response": "Alpha"}, "43": {"stimulus": 71, "trial": 43, "rt": 733, "response": "Beta"}, "60": {"stimulus": 75, "trial": 60, "rt": 579, "response": "Beta"}, "61": {"stimulus": 40, "trial": 61, "rt": 558, "response": "Beta"}, "62": {"stimulus": 50, "trial": 62, "rt": 575, "response": "Beta"}, "63": {"stimulus": 51, "trial": 63, "rt": 490, "response": "Beta"}, "64": {"stimulus": 2, "trial": 64, "rt": 735, "response": "Alpha"}, "49": {"stimulus": 33, "trial": 49, "rt": 514, "response": "Alpha"}, "66": {"stimulus": 48, "trial": 66, "rt": 865, "response": "Beta"}, "67": {"stimulus": 80, "trial": 67, "rt": 696, "response": "Beta"}, "68": {"stimulus": 57, "trial": 68, "rt": 563, "response": "Beta"}, "69": {"stimulus": 23, "trial": 69, "rt": 753, "response": "Alpha"}, "80": {"stimulus": 63, "trial": 80, "rt": 513, "response": "Beta"}, "52": {"stimulus": 16, "trial": 52, "rt": 594, "response": "Alpha"}, "53": {"stimulus": 45, "trial": 53, "rt": 756, "response": "Beta"}, "24": {"stimulus": 42, "trial": 24, "rt": 534, "response": "Alpha"}, "25": {"stimulus": 76, "trial": 25, "rt": 788, "response": "Beta"}, "26": {"stimulus": 44, "trial": 26, "rt": 915, "response": "Beta"}, "27": {"stimulus": 34, "trial": 27, "rt": 1252, "response": "Alpha"}, "20": {"stimulus": 79, "trial": 20, "rt": 757, "response": "Beta"}, "21": {"stimulus": 69, "trial": 21, "rt": 581, "response": "Beta"}, "22": {"stimulus": 41, "trial": 22, "rt": 1336, "response": "Alpha"}, "23": {"stimulus": 27, "trial": 23, "rt": 579, "response": "Alpha"}, "46": {"stimulus": 72, "trial": 46, "rt": 591, "response": "Beta"}, "47": {"stimulus": 29, "trial": 47, "rt": 1169, "response": "Alpha"}, "44": {"stimulus": 9, "trial": 44, "rt": 656, "response": "Alpha"}, "45": {"stimulus": 73, "trial": 45, "rt": 736, "response": "Beta"}, "28": {"stimulus": 30, "trial": 28, "rt": 598, "response": "Alpha"}, "29": {"stimulus": 52, "trial": 29, "rt": 1242, "response": "Beta"}, "40": {"stimulus": 36, "trial": 40, "rt": 775, "response": "Beta"}, "41": {"stimulus": 43, "trial": 41, "rt": 645, "response": "Beta"}, "1": {"stimulus": 46, "trial": 1, "rt": 1721, "response": "Beta"}, "0": {"stimulus": 58, "trial": 0, "rt": 1803, "response": "Beta"}, "3": {"stimulus": 20, "trial": 3, "rt": 632, "response": "Alpha"}, "2": {"stimulus": 14, "trial": 2, "rt": 1120, "response": "Alpha"}, "5": {"stimulus": 25, "trial": 5, "rt": 602, "response": "Alpha"}, "4": {"stimulus": 5, "trial": 4, "rt": 1018, "response": "Alpha"}, "7": {"stimulus": 60, "trial": 7, "rt": 760, "response": "Beta"}, "6": {"stimulus": 66, "trial": 6, "rt": 713, "response": "Beta"}, "9": {"stimulus": 67, "trial": 9, "rt": 775, "response": "Beta"}, "8": {"stimulus": 55, "trial": 8, "rt": 750, "response": "Beta"}, "78": {"stimulus": 64, "trial": 78, "rt": 495, "response": "Beta"}, "51": {"stimulus": 24, "trial": 51, "rt": 536, "response": "Alpha"}, "39": {"stimulus": 74, "trial": 39, "rt": 727, "response": "Beta"}, "65": {"stimulus": 3, "trial": 65, "rt": 471, "response": "Alpha"}, "76": {"stimulus": 78, "trial": 76, "rt": 707, "response": "Beta"}, "75": {"stimulus": 18, "trial": 75, "rt": 786, "response": "Alpha"}, "38": {"stimulus": 35, "trial": 38, "rt": 611, "response": "Alpha"}, "73": {"stimulus": 7, "trial": 73, "rt": 708, "response": "Alpha"}, "72": {"stimulus": 62, "trial": 72, "rt": 721, "response": "Beta"}, "71": {"stimulus": 37, "trial": 71, "rt": 585, "response": "Alpha"}, "70": {"stimulus": 13, "trial": 70, "rt": 572, "response": "Alpha"}, "59": {"stimulus": 38, "trial": 59, "rt": 626, "response": "Beta"}, "79": {"stimulus": 70, "trial": 79, "rt": 503, "response": "Beta"}, "58": {"stimulus": 77, "trial": 58, "rt": 698, "response": "Beta"}, "11": {"stimulus": 59, "trial": 11, "rt": 974, "response": "Beta"}, "10": {"stimulus": 6, "trial": 10, "rt": 607, "response": "Alpha"}, "13": {"stimulus": 0, "trial": 13, "rt": 637, "response": "Alpha"}, "12": {"stimulus": 8, "trial": 12, "rt": 797, "response": "Alpha"}, "15": {"stimulus": 1, "trial": 15, "rt": 949, "response": "Alpha"}, "14": {"stimulus": 39, "trial": 14, "rt": 1441, "response": "Alpha"}, "17": {"stimulus": 4, "trial": 17, "rt": 614, "response": "Alpha"}, "16": {"stimulus": 32, "trial": 16, "rt": 808, "response": "Alpha"}, "19": {"stimulus": 28, "trial": 19, "rt": 1039, "response": "Alpha"}, "18": {"stimulus": 54, "trial": 18, "rt": 577, "response": "Beta"}, "31": {"stimulus": 15, "trial": 31, "rt": 615, "response": "Alpha"}, "30": {"stimulus": 12, "trial": 30, "rt": 819, "response": "Alpha"}, "37": {"stimulus": 19, "trial": 37, "rt": 655, "response": "Alpha"}, "36": {"stimulus": 10, "trial": 36, "rt": 851, "response": "Alpha"}, "35": {"stimulus": 65, "trial": 35, "rt": 795, "response": "Beta"}, "34": {"stimulus": 26, "trial": 34, "rt": 663, "response": "Alpha"}, "33": {"stimulus": 61, "trial": 33, "rt": 852, "response": "Beta"}, "55": {"stimulus": 47, "trial": 55, "rt": 559, "response": "Beta"}, "74": {"stimulus": 68, "trial": 74, "rt": 523, "response": "Beta"}, "32": {"stimulus": 49, "trial": 32, "rt": 725, "response": "Beta"}, "57": {"stimulus": 21, "trial": 57, "rt": 678, "response": "Alpha"}, "50": {"stimulus": 56, "trial": 50, "rt": 509, "response": "Alpha"}}}