{"generation": {"1": {"stimulus": 80, "trial": 1, "rt": 27084}, "0": {"stimulus": 0, "trial": 0, "rt": 24078}, "3": {"stimulus": 7, "trial": 3, "rt": 6938}, "2": {"stimulus": 1, "trial": 2, "rt": 31479}}, "info": {"participant": 23, "exposed": true, "lab": false, "start": 1482174409621, "counterbalance": 6, "condition": "Bottom", "browser": {"platform": "Win32", "userAgent": "Mozilla/5.0 (Windows NT 10.0; WOW64) AppleWebKit/537.36 (KHTML, like Gecko) Chrome/55.0.2883.87 Safari/537.36"}}, "experiment": {"Paradigm": "TACL", "Stimuli": "Size-Color Squares", "Experiment": "Generating-Categories"}, "observation": {"11": {"stimulus": 12, "trial": 11, "rt": 1458}, "10": {"stimulus": 30, "trial": 10, "rt": 1268}, "1": {"stimulus": 32, "trial": 1, "rt": 1906}, "0": {"stimulus": 14, "trial": 0, "rt": 4034}, "3": {"stimulus": 30, "trial": 3, "rt": 1507}, "2": {"stimulus": 12, "trial": 2, "rt": 2548}, "5": {"stimulus": 32, "trial": 5, "rt": 1546}, "4": {"stimulus": 12, "trial": 4, "rt": 2268}, "7": {"stimulus": 14, "trial": 7, "rt": 1570}, "6": {"stimulus": 30, "trial": 6, "rt": 1581}, "9": {"stimulus": 14, "trial": 9, "rt": 1258}, "8": {"stimulus": 32, "trial": 8, "rt": 1067}}, "generalization": {"56": {"stimulus": 79, "trial": 56, "rt": 452, "response": "Alpha"}, "77": {"stimulus": 64, "trial": 77, "rt": 6276, "response": "Alpha"}, "54": {"stimulus": 67, "trial": 54, "rt": 370, "response": "Alpha"}, "42": {"stimulus": 46, "trial": 42, "rt": 492, "response": "Alpha"}, "48": {"stimulus": 3, "trial": 48, "rt": 539, "response": "Beta"}, "43": {"stimulus": 40, "trial": 43, "rt": 453, "response": "Alpha"}, "60": {"stimulus": 27, "trial": 60, "rt": 1171, "response": "Alpha"}, "61": {"stimulus": 56, "trial": 61, "rt": 643, "response": "Alpha"}, "62": {"stimulus": 58, "trial": 62, "rt": 474, "response": "Alpha"}, "63": {"stimulus": 13, "trial": 63, "rt": 796, "response": "Beta"}, "64": {"stimulus": 68, "trial": 64, "rt": 1810, "response": "Alpha"}, "49": {"stimulus": 53, "trial": 49, "rt": 705, "response": "Alpha"}, "66": {"stimulus": 0, "trial": 66, "rt": 971, "response": "Beta"}, "67": {"stimulus": 33, "trial": 67, "rt": 723, "response": "Alpha"}, "68": {"stimulus": 36, "trial": 68, "rt": 2404, "response": "Alpha"}, "69": {"stimulus": 57, "trial": 69, "rt": 499, "response": "Alpha"}, "80": {"stimulus": 11, "trial": 80, "rt": 723, "response": "Beta"}, "52": {"stimulus": 55, "trial": 52, "rt": 387, "response": "Alpha"}, "53": {"stimulus": 80, "trial": 53, "rt": 554, "response": "Alpha"}, "24": {"stimulus": 54, "trial": 24, "rt": 859, "response": "Alpha"}, "25": {"stimulus": 71, "trial": 25, "rt": 740, "response": "Alpha"}, "26": {"stimulus": 72, "trial": 26, "rt": 443, "response": "Alpha"}, "27": {"stimulus": 32, "trial": 27, "rt": 1377, "response": "Alpha"}, "20": {"stimulus": 76, "trial": 20, "rt": 898, "response": "Alpha"}, "21": {"stimulus": 39, "trial": 21, "rt": 1147, "response": "Alpha"}, "22": {"stimulus": 51, "trial": 22, "rt": 875, "response": "Alpha"}, "23": {"stimulus": 5, "trial": 23, "rt": 1004, "response": "Beta"}, "46": {"stimulus": 41, "trial": 46, "rt": 771, "response": "Alpha"}, "47": {"stimulus": 6, "trial": 47, "rt": 683, "response": "Beta"}, "44": {"stimulus": 59, "trial": 44, "rt": 498, "response": "Alpha"}, "45": {"stimulus": 12, "trial": 45, "rt": 908, "response": "Beta"}, "28": {"stimulus": 10, "trial": 28, "rt": 539, "response": "Beta"}, "29": {"stimulus": 20, "trial": 29, "rt": 674, "response": "Beta"}, "40": {"stimulus": 22, "trial": 40, "rt": 866, "response": "Beta"}, "41": {"stimulus": 34, "trial": 41, "rt": 843, "response": "Beta"}, "1": {"stimulus": 7, "trial": 1, "rt": 2629, "response": "Beta"}, "0": {"stimulus": 74, "trial": 0, "rt": 3482, "response": "Alpha"}, "3": {"stimulus": 31, "trial": 3, "rt": 4940, "response": "Alpha"}, "2": {"stimulus": 8, "trial": 2, "rt": 1875, "response": "Beta"}, "5": {"stimulus": 15, "trial": 5, "rt": 2635, "response": "Beta"}, "4": {"stimulus": 37, "trial": 4, "rt": 2906, "response": "Alpha"}, "7": {"stimulus": 35, "trial": 7, "rt": 2795, "response": "Beta"}, "6": {"stimulus": 19, "trial": 6, "rt": 2579, "response": "Beta"}, "9": {"stimulus": 18, "trial": 9, "rt": 1939, "response": "Beta"}, "8": {"stimulus": 30, "trial": 8, "rt": 1788, "response": "Beta"}, "78": {"stimulus": 77, "trial": 78, "rt": 467, "response": "Alpha"}, "51": {"stimulus": 62, "trial": 51, "rt": 492, "response": "Alpha"}, "39": {"stimulus": 70, "trial": 39, "rt": 1083, "response": "Alpha"}, "65": {"stimulus": 2, "trial": 65, "rt": 908, "response": "Beta"}, "76": {"stimulus": 50, "trial": 76, "rt": 731, "response": "Alpha"}, "75": {"stimulus": 24, "trial": 75, "rt": 899, "response": "Beta"}, "38": {"stimulus": 23, "trial": 38, "rt": 572, "response": "Alpha"}, "73": {"stimulus": 43, "trial": 73, "rt": 588, "response": "Alpha"}, "72": {"stimulus": 21, "trial": 72, "rt": 404, "response": "Alpha"}, "71": {"stimulus": 48, "trial": 71, "rt": 450, "response": "Alpha"}, "70": {"stimulus": 44, "trial": 70, "rt": 427, "response": "Alpha"}, "59": {"stimulus": 61, "trial": 59, "rt": 596, "response": "Beta"}, "79": {"stimulus": 9, "trial": 79, "rt": 1171, "response": "Beta"}, "58": {"stimulus": 26, "trial": 58, "rt": 1005, "response": "Alpha"}, "11": {"stimulus": 65, "trial": 11, "rt": 987, "response": "Alpha"}, "10": {"stimulus": 75, "trial": 10, "rt": 1090, "response": "Alpha"}, "13": {"stimulus": 73, "trial": 13, "rt": 1178, "response": "Alpha"}, "12": {"stimulus": 14, "trial": 12, "rt": 1106, "response": "Beta"}, "15": {"stimulus": 69, "trial": 15, "rt": 900, "response": "Alpha"}, "14": {"stimulus": 28, "trial": 14, "rt": 4611, "response": "Alpha"}, "17": {"stimulus": 42, "trial": 17, "rt": 884, "response": "Alpha"}, "16": {"stimulus": 38, "trial": 16, "rt": 2091, "response": "Alpha"}, "19": {"stimulus": 52, "trial": 19, "rt": 1179, "response": "Alpha"}, "18": {"stimulus": 47, "trial": 18, "rt": 1308, "response": "Alpha"}, "31": {"stimulus": 29, "trial": 31, "rt": 826, "response": "Beta"}, "30": {"stimulus": 16, "trial": 30, "rt": 564, "response": "Beta"}, "37": {"stimulus": 1, "trial": 37, "rt": 2227, "response": "Beta"}, "36": {"stimulus": 45, "trial": 36, "rt": 514, "response": "Beta"}, "35": {"stimulus": 25, "trial": 35, "rt": 1100, "response": "Alpha"}, "34": {"stimulus": 60, "trial": 34, "rt": 779, "response": "Alpha"}, "33": {"stimulus": 4, "trial": 33, "rt": 1931, "response": "Beta"}, "55": {"stimulus": 66, "trial": 55, "rt": 411, "response": "Alpha"}, "74": {"stimulus": 78, "trial": 74, "rt": 419, "response": "Alpha"}, "32": {"stimulus": 63, "trial": 32, "rt": 508, "response": "Alpha"}, "57": {"stimulus": 17, "trial": 57, "rt": 977, "response": "Beta"}, "50": {"stimulus": 49, "trial": 50, "rt": 380, "response": "Alpha"}}}0, "response": "Alpha"}}}