{"generation": {"1": {"stimulus": 62, "trial": 1, "rt": 16373}, "0": {"stimulus": 80, "trial": 0, "rt": 20701}, "3": {"stimulus": 8, "trial": 3, "rt": 4110}, "2": {"stimulus": 35, "trial": 2, "rt": 7905}}, "info": {"finish": 1482174739747, "participant": 24, "exposed": true, "lab": false, "start": 1482174410239, "counterbalance": 2, "condition": "Middle", "browser": {"platform": "Win32", "userAgent": "Mozilla/5.0 (Windows NT 10.0; Win64; x64) AppleWebKit/537.36 (KHTML, like Gecko) Chrome/55.0.2883.87 Safari/537.36"}}, "experiment": {"Paradigm": "TACL", "Stimuli": "Size-Color Squares", "Experiment": "Generating-Categories"}, "observation": {"11": {"stimulus": 32, "trial": 11, "rt": 1382}, "10": {"stimulus": 30, "trial": 10, "rt": 1557}, "1": {"stimulus": 48, "trial": 1, "rt": 3203}, "0": {"stimulus": 30, "trial": 0, "rt": 4333}, "3": {"stimulus": 50, "trial": 3, "rt": 2123}, "2": {"stimulus": 32, "trial": 2, "rt": 2109}, "5": {"stimulus": 30, "trial": 5, "rt": 1960}, "4": {"stimulus": 50, "trial": 4, "rt": 2674}, "7": {"stimulus": 32, "trial": 7, "rt": 1682}, "6": {"stimulus": 48, "trial": 6, "rt": 1391}, "9": {"stimulus": 50, "trial": 9, "rt": 1151}, "8": {"stimulus": 48, "trial": 8, "rt": 1994}}, "generalization": {"56": {"stimulus": 79, "trial": 56, "rt": 783, "response": "Beta"}, "77": {"stimulus": 60, "trial": 77, "rt": 974, "response": "Alpha"}, "54": {"stimulus": 47, "trial": 54, "rt": 516, "response": "Alpha"}, "42": {"stimulus": 77, "trial": 42, "rt": 931, "response": "Beta"}, "48": {"stimulus": 72, "trial": 48, "rt": 559, "response": "Alpha"}, "43": {"stimulus": 80, "trial": 43, "rt": 729, "response": "Beta"}, "60": {"stimulus": 21, "trial": 60, "rt": 619, "response": "Alpha"}, "61": {"stimulus": 6, "trial": 61, "rt": 975, "response": "Beta"}, "62": {"stimulus": 28, "trial": 62, "rt": 3270, "response": "Alpha"}, "63": {"stimulus": 19, "trial": 63, "rt": 15188, "response": "Alpha"}, "64": {"stimulus": 40, "trial": 64, "rt": 1114, "response": "Alpha"}, "49": {"stimulus": 1, "trial": 49, "rt": 613, "response": "Alpha"}, "66": {"stimulus": 61, "trial": 66, "rt": 940, "response": "Beta"}, "67": {"stimulus": 68, "trial": 67, "rt": 734, "response": "Alpha"}, "68": {"stimulus": 74, "trial": 68, "rt": 578, "response": "Alpha"}, "69": {"stimulus": 13, "trial": 69, "rt": 738, "response": "Alpha"}, "80": {"stimulus": 35, "trial": 80, "rt": 965, "response": "Beta"}, "52": {"stimulus": 41, "trial": 52, "rt": 1331, "response": "Alpha"}, "53": {"stimulus": 23, "trial": 53, "rt": 686, "response": "Alpha"}, "24": {"stimulus": 37, "trial": 24, "rt": 2437, "response": "Alpha"}, "25": {"stimulus": 45, "trial": 25, "rt": 673, "response": "Alpha"}, "26": {"stimulus": 39, "trial": 26, "rt": 5796, "response": "Alpha"}, "27": {"stimulus": 55, "trial": 27, "rt": 654, "response": "Alpha"}, "20": {"stimulus": 64, "trial": 20, "rt": 2186, "response": "Alpha"}, "21": {"stimulus": 46, "trial": 21, "rt": 2732, "response": "Alpha"}, "22": {"stimulus": 70, "trial": 22, "rt": 1599, "response": "Beta"}, "23": {"stimulus": 66, "trial": 23, "rt": 1701, "response": "Alpha"}, "46": {"stimulus": 25, "trial": 46, "rt": 745, "response": "Beta"}, "47": {"stimulus": 33, "trial": 47, "rt": 1139, "response": "Beta"}, "44": {"stimulus": 2, "trial": 44, "rt": 894, "response": "Alpha"}, "45": {"stimulus": 56, "trial": 45, "rt": 551, "response": "Alpha"}, "28": {"stimulus": 30, "trial": 28, "rt": 1371, "response": "Alpha"}, "29": {"stimulus": 20, "trial": 29, "rt": 658, "response": "Alpha"}, "40": {"stimulus": 50, "trial": 40, "rt": 773, "response": "Beta"}, "41": {"stimulus": 15, "trial": 41, "rt": 562, "response": "Beta"}, "1": {"stimulus": 34, "trial": 1, "rt": 3437, "response": "Beta"}, "0": {"stimulus": 14, "trial": 0, "rt": 1861, "response": "Beta"}, "3": {"stimulus": 17, "trial": 3, "rt": 1276, "response": "Beta"}, "2": {"stimulus": 16, "trial": 2, "rt": 2373, "response": "Beta"}, "5": {"stimulus": 42, "trial": 5, "rt": 825, "response": "Alpha"}, "4": {"stimulus": 62, "trial": 4, "rt": 1492, "response": "Alpha"}, "7": {"stimulus": 52, "trial": 7, "rt": 1205, "response": "Beta"}, "6": {"stimulus": 0, "trial": 6, "rt": 1184, "response": "Alpha"}, "9": {"stimulus": 71, "trial": 9, "rt": 948, "response": "Beta"}, "8": {"stimulus": 65, "trial": 8, "rt": 1016, "response": "Alpha"}, "78": {"stimulus": 26, "trial": 78, "rt": 848, "response": "Beta"}, "51": {"stimulus": 9, "trial": 51, "rt": 640, "response": "Alpha"}, "39": {"stimulus": 10, "trial": 39, "rt": 493, "response": "Alpha"}, "65": {"stimulus": 51, "trial": 65, "rt": 992, "response": "Alpha"}, "76": {"stimulus": 5, "trial": 76, "rt": 1316, "response": "Alpha"}, "75": {"stimulus": 7, "trial": 75, "rt": 569, "response": "Beta"}, "38": {"stimulus": 18, "trial": 38, "rt": 520, "response": "Alpha"}, "73": {"stimulus": 57, "trial": 73, "rt": 849, "response": "Alpha"}, "72": {"stimulus": 78, "trial": 72, "rt": 986, "response": "Alpha"}, "71": {"stimulus": 22, "trial": 71, "rt": 467, "response": "Alpha"}, "70": {"stimulus": 31, "trial": 70, "rt": 471, "response": "Alpha"}, "59": {"stimulus": 58, "trial": 59, "rt": 853, "response": "Alpha"}, "79": {"stimulus": 24, "trial": 79, "rt": 879, "response": "Alpha"}, "58": {"stimulus": 4, "trial": 58, "rt": 546, "response": "Alpha"}, "11": {"stimulus": 75, "trial": 11, "rt": 1003, "response": "Alpha"}, "10": {"stimulus": 49, "trial": 10, "rt": 1086, "response": "Alpha"}, "13": {"stimulus": 38, "trial": 13, "rt": 957, "response": "Alpha"}, "12": {"stimulus": 53, "trial": 12, "rt": 799, "response": "Beta"}, "15": {"stimulus": 27, "trial": 15, "rt": 705, "response": "Alpha"}, "14": {"stimulus": 63, "trial": 14, "rt": 660, "response": "Alpha"}, "17": {"stimulus": 54, "trial": 17, "rt": 592, "response": "Alpha"}, "16": {"stimulus": 73, "trial": 16, "rt": 920, "response": "Alpha"}, "19": {"stimulus": 43, "trial": 19, "rt": 1216, "response": "Beta"}, "18": {"stimulus": 3, "trial": 18, "rt": 1248, "response": "Alpha"}, "31": {"stimulus": 11, "trial": 31, "rt": 773, "response": "Alpha"}, "30": {"stimulus": 29, "trial": 30, "rt": 706, "response": "Alpha"}, "37": {"stimulus": 48, "trial": 37, "rt": 848, "response": "Alpha"}, "36": {"stimulus": 44, "trial": 36, "rt": 1104, "response": "Beta"}, "35": {"stimulus": 36, "trial": 35, "rt": 715, "response": "Alpha"}, "34": {"stimulus": 67, "trial": 34, "rt": 907, "response": "Alpha"}, "33": {"stimulus": 12, "trial": 33, "rt": 1032, "response": "Alpha"}, "55": {"stimulus": 59, "trial": 55, "rt": 855, "response": "Alpha"}, "74": {"stimulus": 8, "trial": 74, "rt": 987, "response": "Beta"}, "32": {"stimulus": 69, "trial": 32, "rt": 1060, "response": "Beta"}, "57": {"stimulus": 76, "trial": 57, "rt": 700, "response": "Alpha"}, "50": {"stimulus": 32, "trial": 50, "rt": 2045, "response": "Alpha"}}}