{"generation": {"1": {"stimulus": 17, "trial": 1, "rt": 17308}, "0": {"stimulus": 8, "trial": 0, "rt": 23129}, "3": {"stimulus": 4, "trial": 3, "rt": 3974}, "2": {"stimulus": 0, "trial": 2, "rt": 5368}}, "info": {"finish": 1482174683340, "participant": 27, "exposed": true, "lab": false, "start": 1482174411786, "counterbalance": 2, "condition": "Middle", "browser": {"platform": "Win32", "userAgent": "Mozilla/5.0 (Windows NT 10.0; Win64; x64) AppleWebKit/537.36 (KHTML, like Gecko) Chrome/55.0.2883.87 Safari/537.36"}}, "experiment": {"Paradigm": "TACL", "Stimuli": "Size-Color Squares", "Experiment": "Generating-Categories"}, "observation": {"11": {"stimulus": 30, "trial": 11, "rt": 913}, "10": {"stimulus": 32, "trial": 10, "rt": 1021}, "1": {"stimulus": 48, "trial": 1, "rt": 2991}, "0": {"stimulus": 50, "trial": 0, "rt": 17802}, "3": {"stimulus": 32, "trial": 3, "rt": 1084}, "2": {"stimulus": 30, "trial": 2, "rt": 1404}, "5": {"stimulus": 48, "trial": 5, "rt": 1566}, "4": {"stimulus": 32, "trial": 4, "rt": 1150}, "7": {"stimulus": 50, "trial": 7, "rt": 953}, "6": {"stimulus": 30, "trial": 6, "rt": 1003}, "9": {"stimulus": 48, "trial": 9, "rt": 1005}, "8": {"stimulus": 50, "trial": 8, "rt": 1029}}, "generalization": {"56": {"stimulus": 15, "trial": 56, "rt": 884, "response": "Alpha"}, "77": {"stimulus": 52, "trial": 77, "rt": 979, "response": "Alpha"}, "54": {"stimulus": 77, "trial": 54, "rt": 891, "response": "Beta"}, "42": {"stimulus": 68, "trial": 42, "rt": 902, "response": "Alpha"}, "48": {"stimulus": 0, "trial": 48, "rt": 694, "response": "Beta"}, "43": {"stimulus": 80, "trial": 43, "rt": 702, "response": "Alpha"}, "60": {"stimulus": 17, "trial": 60, "rt": 902, "response": "Beta"}, "61": {"stimulus": 73, "trial": 61, "rt": 1652, "response": "Beta"}, "62": {"stimulus": 26, "trial": 62, "rt": 1855, "response": "Beta"}, "63": {"stimulus": 29, "trial": 63, "rt": 1341, "response": "Alpha"}, "64": {"stimulus": 54, "trial": 64, "rt": 981, "response": "Alpha"}, "49": {"stimulus": 43, "trial": 49, "rt": 1498, "response": "Alpha"}, "66": {"stimulus": 33, "trial": 66, "rt": 667, "response": "Alpha"}, "67": {"stimulus": 48, "trial": 67, "rt": 765, "response": "Alpha"}, "68": {"stimulus": 50, "trial": 68, "rt": 748, "response": "Alpha"}, "69": {"stimulus": 28, "trial": 69, "rt": 665, "response": "Alpha"}, "80": {"stimulus": 14, "trial": 80, "rt": 1076, "response": "Beta"}, "52": {"stimulus": 70, "trial": 52, "rt": 849, "response": "Alpha"}, "53": {"stimulus": 37, "trial": 53, "rt": 592, "response": "Alpha"}, "24": {"stimulus": 12, "trial": 24, "rt": 1244, "response": "Beta"}, "25": {"stimulus": 6, "trial": 25, "rt": 756, "response": "Beta"}, "26": {"stimulus": 21, "trial": 26, "rt": 2940, "response": "Beta"}, "27": {"stimulus": 66, "trial": 27, "rt": 1220, "response": "Alpha"}, "20": {"stimulus": 16, "trial": 20, "rt": 780, "response": "Beta"}, "21": {"stimulus": 51, "trial": 21, "rt": 918, "response": "Alpha"}, "22": {"stimulus": 35, "trial": 22, "rt": 1281, "response": "Alpha"}, "23": {"stimulus": 30, "trial": 23, "rt": 966, "response": "Alpha"}, "46": {"stimulus": 8, "trial": 46, "rt": 765, "response": "Beta"}, "47": {"stimulus": 64, "trial": 47, "rt": 703, "response": "Alpha"}, "44": {"stimulus": 18, "trial": 44, "rt": 1141, "response": "Alpha"}, "45": {"stimulus": 20, "trial": 45, "rt": 820, "response": "Alpha"}, "28": {"stimulus": 3, "trial": 28, "rt": 990, "response": "Beta"}, "29": {"stimulus": 53, "trial": 29, "rt": 795, "response": "Alpha"}, "40": {"stimulus": 67, "trial": 40, "rt": 1285, "response": "Alpha"}, "41": {"stimulus": 4, "trial": 41, "rt": 874, "response": "Alpha"}, "1": {"stimulus": 9, "trial": 1, "rt": 2198, "response": "Beta"}, "0": {"stimulus": 46, "trial": 0, "rt": 2839, "response": "Alpha"}, "3": {"stimulus": 39, "trial": 3, "rt": 643, "response": "Alpha"}, "2": {"stimulus": 69, "trial": 2, "rt": 3158, "response": "Alpha"}, "5": {"stimulus": 31, "trial": 5, "rt": 674, "response": "Alpha"}, "4": {"stimulus": 61, "trial": 4, "rt": 569, "response": "Alpha"}, "7": {"stimulus": 38, "trial": 7, "rt": 491, "response": "Alpha"}, "6": {"stimulus": 59, "trial": 6, "rt": 517, "response": "Alpha"}, "9": {"stimulus": 79, "trial": 9, "rt": 916, "response": "Alpha"}, "8": {"stimulus": 24, "trial": 8, "rt": 1085, "response": "Alpha"}, "78": {"stimulus": 72, "trial": 78, "rt": 690, "response": "Alpha"}, "51": {"stimulus": 65, "trial": 51, "rt": 939, "response": "Beta"}, "39": {"stimulus": 42, "trial": 39, "rt": 1109, "response": "Alpha"}, "65": {"stimulus": 58, "trial": 65, "rt": 574, "response": "Alpha"}, "76": {"stimulus": 60, "trial": 76, "rt": 873, "response": "Beta"}, "75": {"stimulus": 56, "trial": 75, "rt": 944, "response": "Beta"}, "38": {"stimulus": 2, "trial": 38, "rt": 909, "response": "Beta"}, "73": {"stimulus": 47, "trial": 73, "rt": 596, "response": "Alpha"}, "72": {"stimulus": 49, "trial": 72, "rt": 558, "response": "Beta"}, "71": {"stimulus": 1, "trial": 71, "rt": 1276, "response": "Beta"}, "70": {"stimulus": 5, "trial": 70, "rt": 890, "response": "Beta"}, "59": {"stimulus": 57, "trial": 59, "rt": 1396, "response": "Alpha"}, "79": {"stimulus": 74, "trial": 79, "rt": 816, "response": "Beta"}, "58": {"stimulus": 44, "trial": 58, "rt": 1845, "response": "Beta"}, "11": {"stimulus": 10, "trial": 11, "rt": 3583, "response": "Beta"}, "10": {"stimulus": 55, "trial": 10, "rt": 808, "response": "Alpha"}, "13": {"stimulus": 36, "trial": 13, "rt": 1012, "response": "Alpha"}, "12": {"stimulus": 19, "trial": 12, "rt": 926, "response": "Beta"}, "15": {"stimulus": 22, "trial": 15, "rt": 666, "response": "Alpha"}, "14": {"stimulus": 34, "trial": 14, "rt": 550, "response": "Alpha"}, "17": {"stimulus": 63, "trial": 17, "rt": 740, "response": "Alpha"}, "16": {"stimulus": 25, "trial": 16, "rt": 619, "response": "Alpha"}, "19": {"stimulus": 11, "trial": 19, "rt": 666, "response": "Alpha"}, "18": {"stimulus": 45, "trial": 18, "rt": 539, "response": "Alpha"}, "31": {"stimulus": 23, "trial": 31, "rt": 904, "response": "Alpha"}, "30": {"stimulus": 71, "trial": 30, "rt": 859, "response": "Beta"}, "37": {"stimulus": 62, "trial": 37, "rt": 845, "response": "Alpha"}, "36": {"stimulus": 27, "trial": 36, "rt": 710, "response": "Beta"}, "35": {"stimulus": 13, "trial": 35, "rt": 717, "response": "Beta"}, "34": {"stimulus": 32, "trial": 34, "rt": 556, "response": "Alpha"}, "33": {"stimulus": 40, "trial": 33, "rt": 577, "response": "Alpha"}, "55": {"stimulus": 76, "trial": 55, "rt": 523, "response": "Beta"}, "74": {"stimulus": 78, "trial": 74, "rt": 1099, "response": "Beta"}, "32": {"stimulus": 75, "trial": 32, "rt": 669, "response": "Alpha"}, "57": {"stimulus": 7, "trial": 57, "rt": 596, "response": "Beta"}, "50": {"stimulus": 41, "trial": 50, "rt": 1053, "response": "Alpha"}}}