{"generation": {"1": {"stimulus": 51, "trial": 1, "rt": 6931}, "0": {"stimulus": 33, "trial": 0, "rt": 13156}, "3": {"stimulus": 60, "trial": 3, "rt": 5955}, "2": {"stimulus": 61, "trial": 2, "rt": 6196}}, "info": {"finish": 1482174813754, "participant": 28, "exposed": true, "lab": false, "start": 1482174413726, "counterbalance": 4, "condition": "Bottom", "browser": {"platform": "Win32", "userAgent": "Mozilla/5.0 (Windows NT 10.0; WOW64; rv:50.0) Gecko/20100101 Firefox/50.0"}}, "experiment": {"Paradigm": "TACL", "Stimuli": "Size-Color Squares", "Experiment": "Generating-Categories"}, "observation": {"11": {"stimulus": 30, "trial": 11, "rt": 1314}, "10": {"stimulus": 14, "trial": 10, "rt": 1019}, "1": {"stimulus": 32, "trial": 1, "rt": 2251}, "0": {"stimulus": 14, "trial": 0, "rt": 4133}, "3": {"stimulus": 12, "trial": 3, "rt": 1251}, "2": {"stimulus": 30, "trial": 2, "rt": 1315}, "5": {"stimulus": 14, "trial": 5, "rt": 1051}, "4": {"stimulus": 32, "trial": 4, "rt": 1212}, "7": {"stimulus": 30, "trial": 7, "rt": 1148}, "6": {"stimulus": 12, "trial": 6, "rt": 763}, "9": {"stimulus": 12, "trial": 9, "rt": 780}, "8": {"stimulus": 32, "trial": 8, "rt": 1108}}, "generalization": {"56": {"stimulus": 70, "trial": 56, "rt": 756, "response": "Beta"}, "77": {"stimulus": 59, "trial": 77, "rt": 530, "response": "Beta"}, "54": {"stimulus": 26, "trial": 54, "rt": 819, "response": "Beta"}, "42": {"stimulus": 80, "trial": 42, "rt": 1346, "response": "Beta"}, "48": {"stimulus": 5, "trial": 48, "rt": 1683, "response": "Beta"}, "43": {"stimulus": 12, "trial": 43, "rt": 1395, "response": "Alpha"}, "60": {"stimulus": 55, "trial": 60, "rt": 476, "response": "Alpha"}, "61": {"stimulus": 52, "trial": 61, "rt": 811, "response": "Beta"}, "62": {"stimulus": 64, "trial": 62, "rt": 795, "response": "Alpha"}, "63": {"stimulus": 15, "trial": 63, "rt": 995, "response": "Beta"}, "64": {"stimulus": 34, "trial": 64, "rt": 763, "response": "Alpha"}, "49": {"stimulus": 36, "trial": 49, "rt": 1148, "response": "Alpha"}, "66": {"stimulus": 61, "trial": 66, "rt": 620, "response": "Alpha"}, "67": {"stimulus": 51, "trial": 67, "rt": 1019, "response": "Beta"}, "68": {"stimulus": 20, "trial": 68, "rt": 923, "response": "Alpha"}, "69": {"stimulus": 29, "trial": 69, "rt": 483, "response": "Alpha"}, "80": {"stimulus": 6, "trial": 80, "rt": 1243, "response": "Beta"}, "52": {"stimulus": 33, "trial": 52, "rt": 707, "response": "Beta"}, "53": {"stimulus": 54, "trial": 53, "rt": 851, "response": "Alpha"}, "24": {"stimulus": 16, "trial": 24, "rt": 467, "response": "Beta"}, "25": {"stimulus": 41, "trial": 25, "rt": 566, "response": "Beta"}, "26": {"stimulus": 31, "trial": 26, "rt": 1335, "response": "Beta"}, "27": {"stimulus": 9, "trial": 27, "rt": 740, "response": "Alpha"}, "20": {"stimulus": 37, "trial": 20, "rt": 832, "response": "Alpha"}, "21": {"stimulus": 63, "trial": 21, "rt": 467, "response": "Alpha"}, "22": {"stimulus": 58, "trial": 22, "rt": 811, "response": "Alpha"}, "23": {"stimulus": 7, "trial": 23, "rt": 835, "response": "Beta"}, "46": {"stimulus": 17, "trial": 46, "rt": 587, "response": "Beta"}, "47": {"stimulus": 45, "trial": 47, "rt": 959, "response": "Alpha"}, "44": {"stimulus": 27, "trial": 44, "rt": 508, "response": "Alpha"}, "45": {"stimulus": 49, "trial": 45, "rt": 1076, "response": "Beta"}, "28": {"stimulus": 0, "trial": 28, "rt": 435, "response": "Alpha"}, "29": {"stimulus": 76, "trial": 29, "rt": 1179, "response": "Beta"}, "40": {"stimulus": 35, "trial": 40, "rt": 1394, "response": "Beta"}, "41": {"stimulus": 73, "trial": 41, "rt": 1868, "response": "Alpha"}, "1": {"stimulus": 78, "trial": 1, "rt": 1108, "response": "Beta"}, "0": {"stimulus": 11, "trial": 0, "rt": 7986, "response": "Alpha"}, "3": {"stimulus": 40, "trial": 3, "rt": 1140, "response": "Beta"}, "2": {"stimulus": 50, "trial": 2, "rt": 1931, "response": "Beta"}, "5": {"stimulus": 4, "trial": 5, "rt": 859, "response": "Beta"}, "4": {"stimulus": 42, "trial": 4, "rt": 2027, "response": "Beta"}, "7": {"stimulus": 44, "trial": 7, "rt": 860, "response": "Beta"}, "6": {"stimulus": 74, "trial": 6, "rt": 1148, "response": "Alpha"}, "9": {"stimulus": 66, "trial": 9, "rt": 1115, "response": "Alpha"}, "8": {"stimulus": 53, "trial": 8, "rt": 1067, "response": "Alpha"}, "78": {"stimulus": 57, "trial": 78, "rt": 707, "response": "Beta"}, "51": {"stimulus": 46, "trial": 51, "rt": 1819, "response": "Alpha"}, "39": {"stimulus": 28, "trial": 39, "rt": 923, "response": "Alpha"}, "65": {"stimulus": 19, "trial": 65, "rt": 427, "response": "Beta"}, "76": {"stimulus": 68, "trial": 76, "rt": 499, "response": "Beta"}, "75": {"stimulus": 69, "trial": 75, "rt": 1403, "response": "Beta"}, "38": {"stimulus": 3, "trial": 38, "rt": 595, "response": "Beta"}, "73": {"stimulus": 43, "trial": 73, "rt": 580, "response": "Beta"}, "72": {"stimulus": 32, "trial": 72, "rt": 771, "response": "Beta"}, "71": {"stimulus": 8, "trial": 71, "rt": 659, "response": "Beta"}, "70": {"stimulus": 77, "trial": 70, "rt": 828, "response": "Beta"}, "59": {"stimulus": 2, "trial": 59, "rt": 515, "response": "Alpha"}, "79": {"stimulus": 18, "trial": 79, "rt": 459, "response": "Alpha"}, "58": {"stimulus": 72, "trial": 58, "rt": 546, "response": "Alpha"}, "11": {"stimulus": 24, "trial": 11, "rt": 1188, "response": "Beta"}, "10": {"stimulus": 1, "trial": 10, "rt": 812, "response": "Alpha"}, "13": {"stimulus": 75, "trial": 13, "rt": 955, "response": "Alpha"}, "12": {"stimulus": 39, "trial": 12, "rt": 763, "response": "Beta"}, "15": {"stimulus": 60, "trial": 15, "rt": 1291, "response": "Beta"}, "14": {"stimulus": 38, "trial": 14, "rt": 795, "response": "Alpha"}, "17": {"stimulus": 10, "trial": 17, "rt": 763, "response": "Beta"}, "16": {"stimulus": 79, "trial": 16, "rt": 604, "response": "Beta"}, "19": {"stimulus": 71, "trial": 19, "rt": 1965, "response": "Beta"}, "18": {"stimulus": 22, "trial": 18, "rt": 1071, "response": "Beta"}, "31": {"stimulus": 30, "trial": 31, "rt": 995, "response": "Alpha"}, "30": {"stimulus": 62, "trial": 30, "rt": 675, "response": "Beta"}, "37": {"stimulus": 23, "trial": 37, "rt": 827, "response": "Beta"}, "36": {"stimulus": 48, "trial": 36, "rt": 459, "response": "Alpha"}, "35": {"stimulus": 56, "trial": 35, "rt": 1041, "response": "Alpha"}, "34": {"stimulus": 13, "trial": 34, "rt": 550, "response": "Beta"}, "33": {"stimulus": 14, "trial": 33, "rt": 883, "response": "Beta"}, "55": {"stimulus": 67, "trial": 55, "rt": 1012, "response": "Alpha"}, "74": {"stimulus": 65, "trial": 74, "rt": 964, "response": "Alpha"}, "32": {"stimulus": 21, "trial": 32, "rt": 516, "response": "Alpha"}, "57": {"stimulus": 47, "trial": 57, "rt": 2220, "response": "Alpha"}, "50": {"stimulus": 25, "trial": 50, "rt": 859, "response": "Beta"}}}