{"generation": {"1": {"stimulus": 80, "trial": 1, "rt": 8275}, "0": {"stimulus": 72, "trial": 0, "rt": 17112}, "3": {"stimulus": 74, "trial": 3, "rt": 2867}, "2": {"stimulus": 78, "trial": 2, "rt": 3514}}, "info": {"finish": 1482174725857, "participant": 3, "exposed": true, "lab": false, "start": 1482174406507, "counterbalance": 3, "condition": "Bottom", "browser": {"platform": "Win32", "userAgent": "Mozilla/5.0 (Windows NT 10.0; WOW64) AppleWebKit/537.36 (KHTML, like Gecko) Chrome/54.0.2840.99 Safari/537.36"}}, "experiment": {"Paradigm": "TACL", "Stimuli": "Size-Color Squares", "Experiment": "Generating-Categories"}, "observation": {"11": {"stimulus": 32, "trial": 11, "rt": 811}, "10": {"stimulus": 12, "trial": 10, "rt": 772}, "1": {"stimulus": 12, "trial": 1, "rt": 1474}, "0": {"stimulus": 32, "trial": 0, "rt": 3902}, "3": {"stimulus": 14, "trial": 3, "rt": 1349}, "2": {"stimulus": 30, "trial": 2, "rt": 3176}, "5": {"stimulus": 32, "trial": 5, "rt": 891}, "4": {"stimulus": 14, "trial": 4, "rt": 959}, "7": {"stimulus": 12, "trial": 7, "rt": 871}, "6": {"stimulus": 30, "trial": 6, "rt": 901}, "9": {"stimulus": 14, "trial": 9, "rt": 1009}, "8": {"stimulus": 30, "trial": 8, "rt": 852}}, "generalization": {"56": {"stimulus": 16, "trial": 56, "rt": 363, "response": "Alpha"}, "77": {"stimulus": 57, "trial": 77, "rt": 492, "response": "Alpha"}, "54": {"stimulus": 64, "trial": 54, "rt": 621, "response": "Alpha"}, "42": {"stimulus": 69, "trial": 42, "rt": 603, "response": "Alpha"}, "48": {"stimulus": 77, "trial": 48, "rt": 802, "response": "Beta"}, "43": {"stimulus": 63, "trial": 43, "rt": 782, "response": "Alpha"}, "60": {"stimulus": 52, "trial": 60, "rt": 364, "response": "Alpha"}, "61": {"stimulus": 56, "trial": 61, "rt": 543, "response": "Alpha"}, "62": {"stimulus": 0, "trial": 62, "rt": 363, "response": "Alpha"}, "63": {"stimulus": 58, "trial": 63, "rt": 1610, "response": "Alpha"}, "64": {"stimulus": 34, "trial": 64, "rt": 369, "response": "Alpha"}, "49": {"stimulus": 60, "trial": 49, "rt": 711, "response": "Alpha"}, "66": {"stimulus": 78, "trial": 66, "rt": 891, "response": "Beta"}, "67": {"stimulus": 9, "trial": 67, "rt": 423, "response": "Alpha"}, "68": {"stimulus": 33, "trial": 68, "rt": 343, "response": "Alpha"}, "69": {"stimulus": 50, "trial": 69, "rt": 404, "response": "Alpha"}, "80": {"stimulus": 2, "trial": 80, "rt": 354, "response": "Alpha"}, "52": {"stimulus": 30, "trial": 52, "rt": 362, "response": "Alpha"}, "53": {"stimulus": 36, "trial": 53, "rt": 464, "response": "Alpha"}, "24": {"stimulus": 70, "trial": 24, "rt": 1067, "response": "Alpha"}, "25": {"stimulus": 49, "trial": 25, "rt": 403, "response": "Alpha"}, "26": {"stimulus": 48, "trial": 26, "rt": 463, "response": "Alpha"}, "27": {"stimulus": 7, "trial": 27, "rt": 412, "response": "Alpha"}, "20": {"stimulus": 25, "trial": 20, "rt": 383, "response": "Alpha"}, "21": {"stimulus": 51, "trial": 21, "rt": 604, "response": "Alpha"}, "22": {"stimulus": 14, "trial": 22, "rt": 403, "response": "Alpha"}, "23": {"stimulus": 37, "trial": 23, "rt": 413, "response": "Alpha"}, "46": {"stimulus": 1, "trial": 46, "rt": 372, "response": "Alpha"}, "47": {"stimulus": 46, "trial": 47, "rt": 473, "response": "Alpha"}, "44": {"stimulus": 66, "trial": 44, "rt": 612, "response": "Alpha"}, "45": {"stimulus": 39, "trial": 45, "rt": 375, "response": "Alpha"}, "28": {"stimulus": 21, "trial": 28, "rt": 382, "response": "Alpha"}, "29": {"stimulus": 35, "trial": 29, "rt": 524, "response": "Alpha"}, "40": {"stimulus": 27, "trial": 40, "rt": 355, "response": "Alpha"}, "41": {"stimulus": 29, "trial": 41, "rt": 374, "response": "Alpha"}, "1": {"stimulus": 76, "trial": 1, "rt": 930, "response": "Beta"}, "0": {"stimulus": 53, "trial": 0, "rt": 2351, "response": "Alpha"}, "3": {"stimulus": 23, "trial": 3, "rt": 461, "response": "Alpha"}, "2": {"stimulus": 17, "trial": 2, "rt": 692, "response": "Alpha"}, "5": {"stimulus": 65, "trial": 5, "rt": 1935, "response": "Beta"}, "4": {"stimulus": 73, "trial": 4, "rt": 649, "response": "Beta"}, "7": {"stimulus": 47, "trial": 7, "rt": 960, "response": "Alpha"}, "6": {"stimulus": 74, "trial": 6, "rt": 683, "response": "Beta"}, "9": {"stimulus": 4, "trial": 9, "rt": 433, "response": "Alpha"}, "8": {"stimulus": 43, "trial": 8, "rt": 603, "response": "Alpha"}, "78": {"stimulus": 26, "trial": 78, "rt": 343, "response": "Alpha"}, "51": {"stimulus": 3, "trial": 51, "rt": 401, "response": "Alpha"}, "39": {"stimulus": 31, "trial": 39, "rt": 393, "response": "Alpha"}, "65": {"stimulus": 12, "trial": 65, "rt": 414, "response": "Alpha"}, "76": {"stimulus": 72, "trial": 76, "rt": 1278, "response": "Beta"}, "75": {"stimulus": 44, "trial": 75, "rt": 344, "response": "Alpha"}, "38": {"stimulus": 18, "trial": 38, "rt": 394, "response": "Alpha"}, "73": {"stimulus": 45, "trial": 73, "rt": 363, "response": "Alpha"}, "72": {"stimulus": 11, "trial": 72, "rt": 395, "response": "Alpha"}, "71": {"stimulus": 79, "trial": 71, "rt": 791, "response": "Beta"}, "70": {"stimulus": 62, "trial": 70, "rt": 354, "response": "Alpha"}, "59": {"stimulus": 13, "trial": 59, "rt": 374, "response": "Alpha"}, "79": {"stimulus": 10, "trial": 79, "rt": 365, "response": "Alpha"}, "58": {"stimulus": 20, "trial": 58, "rt": 394, "response": "Alpha"}, "11": {"stimulus": 15, "trial": 11, "rt": 423, "response": "Alpha"}, "10": {"stimulus": 61, "trial": 10, "rt": 722, "response": "Alpha"}, "13": {"stimulus": 28, "trial": 13, "rt": 424, "response": "Alpha"}, "12": {"stimulus": 41, "trial": 12, "rt": 562, "response": "Alpha"}, "15": {"stimulus": 8, "trial": 15, "rt": 425, "response": "Alpha"}, "14": {"stimulus": 38, "trial": 14, "rt": 443, "response": "Alpha"}, "17": {"stimulus": 42, "trial": 17, "rt": 403, "response": "Alpha"}, "16": {"stimulus": 40, "trial": 16, "rt": 521, "response": "Alpha"}, "19": {"stimulus": 24, "trial": 19, "rt": 583, "response": "Alpha"}, "18": {"stimulus": 75, "trial": 18, "rt": 792, "response": "Beta"}, "31": {"stimulus": 22, "trial": 31, "rt": 374, "response": "Alpha"}, "30": {"stimulus": 32, "trial": 30, "rt": 444, "response": "Alpha"}, "37": {"stimulus": 54, "trial": 37, "rt": 503, "response": "Alpha"}, "36": {"stimulus": 68, "trial": 36, "rt": 523, "response": "Alpha"}, "35": {"stimulus": 6, "trial": 35, "rt": 374, "response": "Alpha"}, "34": {"stimulus": 5, "trial": 34, "rt": 383, "response": "Alpha"}, "33": {"stimulus": 71, "trial": 33, "rt": 1060, "response": "Alpha"}, "55": {"stimulus": 59, "trial": 55, "rt": 453, "response": "Alpha"}, "74": {"stimulus": 67, "trial": 74, "rt": 463, "response": "Alpha"}, "32": {"stimulus": 80, "trial": 32, "rt": 741, "response": "Beta"}, "57": {"stimulus": 19, "trial": 57, "rt": 363, "response": "Alpha"}, "50": {"stimulus": 55, "trial": 50, "rt": 472, "response": "Alpha"}}}