{"generation": {"1": {"stimulus": 0, "trial": 1, "rt": 7753}, "0": {"stimulus": 39, "trial": 0, "rt": 9494}, "3": {"stimulus": 1, "trial": 3, "rt": 6246}, "2": {"stimulus": 35, "trial": 2, "rt": 10453}}, "info": {"finish": 1482174838105, "participant": 35, "exposed": true, "lab": false, "start": 1482174412404, "counterbalance": 7, "condition": "Bottom", "browser": {"platform": "Win32", "userAgent": "Mozilla/5.0 (Windows NT 6.1; WOW64) AppleWebKit/537.36 (KHTML, like Gecko) Chrome/55.0.2883.87 Safari/537.36"}}, "experiment": {"Paradigm": "TACL", "Stimuli": "Size-Color Squares", "Experiment": "Generating-Categories"}, "observation": {"11": {"stimulus": 30, "trial": 11, "rt": 1105}, "10": {"stimulus": 12, "trial": 10, "rt": 725}, "1": {"stimulus": 30, "trial": 1, "rt": 986}, "0": {"stimulus": 12, "trial": 0, "rt": 1493}, "3": {"stimulus": 32, "trial": 3, "rt": 780}, "2": {"stimulus": 14, "trial": 2, "rt": 939}, "5": {"stimulus": 30, "trial": 5, "rt": 1266}, "4": {"stimulus": 12, "trial": 4, "rt": 979}, "7": {"stimulus": 14, "trial": 7, "rt": 977}, "6": {"stimulus": 32, "trial": 6, "rt": 1455}, "9": {"stimulus": 32, "trial": 9, "rt": 969}, "8": {"stimulus": 14, "trial": 8, "rt": 925}}, "generalization": {"56": {"stimulus": 22, "trial": 56, "rt": 786, "response": "Alpha"}, "77": {"stimulus": 8, "trial": 77, "rt": 925, "response": "Beta"}, "54": {"stimulus": 44, "trial": 54, "rt": 1003, "response": "Beta"}, "42": {"stimulus": 66, "trial": 42, "rt": 959, "response": "Alpha"}, "48": {"stimulus": 54, "trial": 48, "rt": 962, "response": "Beta"}, "43": {"stimulus": 80, "trial": 43, "rt": 781, "response": "Beta"}, "60": {"stimulus": 61, "trial": 60, "rt": 688, "response": "Alpha"}, "61": {"stimulus": 16, "trial": 61, "rt": 812, "response": "Alpha"}, "62": {"stimulus": 73, "trial": 62, "rt": 541, "response": "Alpha"}, "63": {"stimulus": 3, "trial": 63, "rt": 599, "response": "Alpha"}, "64": {"stimulus": 28, "trial": 64, "rt": 980, "response": "Alpha"}, "49": {"stimulus": 43, "trial": 49, "rt": 1041, "response": "Alpha"}, "66": {"stimulus": 65, "trial": 66, "rt": 483, "response": "Alpha"}, "67": {"stimulus": 59, "trial": 67, "rt": 473, "response": "Alpha"}, "68": {"stimulus": 76, "trial": 68, "rt": 515, "response": "Alpha"}, "69": {"stimulus": 0, "trial": 69, "rt": 992, "response": "Beta"}, "80": {"stimulus": 6, "trial": 80, "rt": 482, "response": "Alpha"}, "52": {"stimulus": 2, "trial": 52, "rt": 580, "response": "Alpha"}, "53": {"stimulus": 12, "trial": 53, "rt": 569, "response": "Alpha"}, "24": {"stimulus": 52, "trial": 24, "rt": 649, "response": "Alpha"}, "25": {"stimulus": 26, "trial": 25, "rt": 1339, "response": "Beta"}, "26": {"stimulus": 21, "trial": 26, "rt": 908, "response": "Alpha"}, "27": {"stimulus": 49, "trial": 27, "rt": 475, "response": "Alpha"}, "20": {"stimulus": 50, "trial": 20, "rt": 896, "response": "Alpha"}, "21": {"stimulus": 35, "trial": 21, "rt": 875, "response": "Beta"}, "22": {"stimulus": 69, "trial": 22, "rt": 1003, "response": "Alpha"}, "23": {"stimulus": 25, "trial": 23, "rt": 1071, "response": "Alpha"}, "46": {"stimulus": 75, "trial": 46, "rt": 539, "response": "Alpha"}, "47": {"stimulus": 20, "trial": 47, "rt": 882, "response": "Alpha"}, "44": {"stimulus": 29, "trial": 44, "rt": 725, "response": "Alpha"}, "45": {"stimulus": 38, "trial": 45, "rt": 451, "response": "Alpha"}, "28": {"stimulus": 15, "trial": 28, "rt": 507, "response": "Alpha"}, "29": {"stimulus": 17, "trial": 29, "rt": 1238, "response": "Beta"}, "40": {"stimulus": 30, "trial": 40, "rt": 600, "response": "Alpha"}, "41": {"stimulus": 70, "trial": 41, "rt": 781, "response": "Alpha"}, "1": {"stimulus": 4, "trial": 1, "rt": 1168, "response": "Alpha"}, "0": {"stimulus": 36, "trial": 0, "rt": 2039, "response": "Beta"}, "3": {"stimulus": 68, "trial": 3, "rt": 561, "response": "Alpha"}, "2": {"stimulus": 32, "trial": 2, "rt": 521, "response": "Alpha"}, "5": {"stimulus": 33, "trial": 5, "rt": 562, "response": "Alpha"}, "4": {"stimulus": 10, "trial": 4, "rt": 937, "response": "Alpha"}, "7": {"stimulus": 11, "trial": 7, "rt": 496, "response": "Alpha"}, "6": {"stimulus": 57, "trial": 6, "rt": 480, "response": "Alpha"}, "9": {"stimulus": 63, "trial": 9, "rt": 1183, "response": "Beta"}, "8": {"stimulus": 45, "trial": 8, "rt": 499, "response": "Alpha"}, "78": {"stimulus": 27, "trial": 78, "rt": 819, "response": "Beta"}, "51": {"stimulus": 40, "trial": 51, "rt": 601, "response": "Alpha"}, "39": {"stimulus": 19, "trial": 39, "rt": 552, "response": "Alpha"}, "65": {"stimulus": 51, "trial": 65, "rt": 646, "response": "Alpha"}, "76": {"stimulus": 1, "trial": 76, "rt": 457, "response": "Alpha"}, "75": {"stimulus": 47, "trial": 75, "rt": 437, "response": "Alpha"}, "38": {"stimulus": 67, "trial": 38, "rt": 1317, "response": "Alpha"}, "73": {"stimulus": 23, "trial": 73, "rt": 487, "response": "Alpha"}, "72": {"stimulus": 58, "trial": 72, "rt": 805, "response": "Alpha"}, "71": {"stimulus": 64, "trial": 71, "rt": 661, "response": "Alpha"}, "70": {"stimulus": 42, "trial": 70, "rt": 752, "response": "Alpha"}, "59": {"stimulus": 53, "trial": 59, "rt": 829, "response": "Beta"}, "79": {"stimulus": 14, "trial": 79, "rt": 728, "response": "Alpha"}, "58": {"stimulus": 48, "trial": 58, "rt": 545, "response": "Alpha"}, "11": {"stimulus": 24, "trial": 11, "rt": 670, "response": "Alpha"}, "10": {"stimulus": 39, "trial": 10, "rt": 841, "response": "Alpha"}, "13": {"stimulus": 37, "trial": 13, "rt": 497, "response": "Alpha"}, "12": {"stimulus": 13, "trial": 12, "rt": 507, "response": "Alpha"}, "15": {"stimulus": 7, "trial": 15, "rt": 1328, "response": "Beta"}, "14": {"stimulus": 62, "trial": 14, "rt": 1457, "response": "Beta"}, "17": {"stimulus": 55, "trial": 17, "rt": 1326, "response": "Alpha"}, "16": {"stimulus": 18, "trial": 16, "rt": 898, "response": "Beta"}, "19": {"stimulus": 34, "trial": 19, "rt": 1004, "response": "Beta"}, "18": {"stimulus": 5, "trial": 18, "rt": 1047, "response": "Alpha"}, "31": {"stimulus": 71, "trial": 31, "rt": 553, "response": "Alpha"}, "30": {"stimulus": 9, "trial": 30, "rt": 727, "response": "Beta"}, "37": {"stimulus": 72, "trial": 37, "rt": 477, "response": "Alpha"}, "36": {"stimulus": 31, "trial": 36, "rt": 1031, "response": "Alpha"}, "35": {"stimulus": 74, "trial": 35, "rt": 1309, "response": "Alpha"}, "34": {"stimulus": 60, "trial": 34, "rt": 666, "response": "Alpha"}, "33": {"stimulus": 56, "trial": 33, "rt": 881, "response": "Alpha"}, "55": {"stimulus": 78, "trial": 55, "rt": 1144, "response": "Alpha"}, "74": {"stimulus": 77, "trial": 74, "rt": 426, "response": "Alpha"}, "32": {"stimulus": 79, "trial": 32, "rt": 839, "response": "Beta"}, "57": {"stimulus": 46, "trial": 57, "rt": 505, "response": "Alpha"}, "50": {"stimulus": 41, "trial": 50, "rt": 1574, "response": "Alpha"}}}