{"generation": {"1": {"stimulus": 72, "trial": 1, "rt": 5497}, "0": {"stimulus": 79, "trial": 0, "rt": 11138}, "3": {"stimulus": 66, "trial": 3, "rt": 5938}, "2": {"stimulus": 76, "trial": 2, "rt": 9389}}, "info": {"finish": 1482175169482, "participant": 36, "exposed": true, "lab": false, "start": 1482174413337, "counterbalance": 3, "condition": "Bottom", "browser": {"platform": "Win32", "userAgent": "Mozilla/5.0 (Windows NT 10.0) AppleWebKit/537.36 (KHTML, like Gecko) Chrome/55.0.2883.87 Safari/537.36"}}, "experiment": {"Paradigm": "TACL", "Stimuli": "Size-Color Squares", "Experiment": "Generating-Categories"}, "observation": {"11": {"stimulus": 12, "trial": 11, "rt": 629}, "10": {"stimulus": 14, "trial": 10, "rt": 755}, "1": {"stimulus": 14, "trial": 1, "rt": 1233}, "0": {"stimulus": 30, "trial": 0, "rt": 1760}, "3": {"stimulus": 12, "trial": 3, "rt": 1194}, "2": {"stimulus": 32, "trial": 2, "rt": 1622}, "5": {"stimulus": 14, "trial": 5, "rt": 1186}, "4": {"stimulus": 12, "trial": 4, "rt": 1024}, "7": {"stimulus": 30, "trial": 7, "rt": 939}, "6": {"stimulus": 32, "trial": 6, "rt": 881}, "9": {"stimulus": 32, "trial": 9, "rt": 669}, "8": {"stimulus": 30, "trial": 8, "rt": 883}}, "generalization": {"56": {"stimulus": 65, "trial": 56, "rt": 1249, "response": "Beta"}, "77": {"stimulus": 66, "trial": 77, "rt": 599, "response": "Beta"}, "54": {"stimulus": 34, "trial": 54, "rt": 834, "response": "Alpha"}, "42": {"stimulus": 61, "trial": 42, "rt": 743, "response": "Beta"}, "48": {"stimulus": 12, "trial": 48, "rt": 809, "response": "Alpha"}, "43": {"stimulus": 37, "trial": 43, "rt": 1487, "response": "Alpha"}, "60": {"stimulus": 11, "trial": 60, "rt": 627, "response": "Alpha"}, "61": {"stimulus": 5, "trial": 61, "rt": 958, "response": "Alpha"}, "62": {"stimulus": 30, "trial": 62, "rt": 580, "response": "Alpha"}, "63": {"stimulus": 31, "trial": 63, "rt": 1012, "response": "Alpha"}, "64": {"stimulus": 20, "trial": 64, "rt": 502, "response": "Alpha"}, "49": {"stimulus": 28, "trial": 49, "rt": 1944, "response": "Alpha"}, "66": {"stimulus": 72, "trial": 66, "rt": 622, "response": "Beta"}, "67": {"stimulus": 4, "trial": 67, "rt": 901, "response": "Alpha"}, "68": {"stimulus": 24, "trial": 68, "rt": 617, "response": "Alpha"}, "69": {"stimulus": 76, "trial": 69, "rt": 580, "response": "Beta"}, "80": {"stimulus": 70, "trial": 80, "rt": 1076, "response": "Beta"}, "52": {"stimulus": 6, "trial": 52, "rt": 637, "response": "Alpha"}, "53": {"stimulus": 15, "trial": 53, "rt": 604, "response": "Alpha"}, "24": {"stimulus": 55, "trial": 24, "rt": 724, "response": "Beta"}, "25": {"stimulus": 23, "trial": 25, "rt": 785, "response": "Alpha"}, "26": {"stimulus": 33, "trial": 26, "rt": 650, "response": "Alpha"}, "27": {"stimulus": 18, "trial": 27, "rt": 637, "response": "Alpha"}, "20": {"stimulus": 43, "trial": 20, "rt": 660, "response": "Alpha"}, "21": {"stimulus": 7, "trial": 21, "rt": 721, "response": "Alpha"}, "22": {"stimulus": 13, "trial": 22, "rt": 469, "response": "Alpha"}, "23": {"stimulus": 17, "trial": 23, "rt": 704, "response": "Alpha"}, "46": {"stimulus": 78, "trial": 46, "rt": 584, "response": "Beta"}, "47": {"stimulus": 44, "trial": 47, "rt": 1211, "response": "Alpha"}, "44": {"stimulus": 60, "trial": 44, "rt": 600, "response": "Beta"}, "45": {"stimulus": 80, "trial": 45, "rt": 614, "response": "Beta"}, "28": {"stimulus": 0, "trial": 28, "rt": 660, "response": "Alpha"}, "29": {"stimulus": 42, "trial": 29, "rt": 1848, "response": "Beta"}, "40": {"stimulus": 52, "trial": 40, "rt": 674, "response": "Beta"}, "41": {"stimulus": 64, "trial": 41, "rt": 603, "response": "Beta"}, "1": {"stimulus": 73, "trial": 1, "rt": 974, "response": "Beta"}, "0": {"stimulus": 3, "trial": 0, "rt": 1512, "response": "Alpha"}, "3": {"stimulus": 22, "trial": 3, "rt": 735, "response": "Alpha"}, "2": {"stimulus": 67, "trial": 2, "rt": 741, "response": "Beta"}, "5": {"stimulus": 14, "trial": 5, "rt": 1104, "response": "Alpha"}, "4": {"stimulus": 45, "trial": 4, "rt": 2762, "response": "Beta"}, "7": {"stimulus": 57, "trial": 7, "rt": 737, "response": "Beta"}, "6": {"stimulus": 32, "trial": 6, "rt": 659, "response": "Alpha"}, "9": {"stimulus": 62, "trial": 9, "rt": 534, "response": "Alpha"}, "8": {"stimulus": 41, "trial": 8, "rt": 836, "response": "Beta"}, "78": {"stimulus": 26, "trial": 78, "rt": 766, "response": "Alpha"}, "51": {"stimulus": 10, "trial": 51, "rt": 579, "response": "Alpha"}, "39": {"stimulus": 49, "trial": 39, "rt": 1106, "response": "Alpha"}, "65": {"stimulus": 8, "trial": 65, "rt": 693, "response": "Alpha"}, "76": {"stimulus": 51, "trial": 76, "rt": 677, "response": "Beta"}, "75": {"stimulus": 77, "trial": 75, "rt": 797, "response": "Beta"}, "38": {"stimulus": 1, "trial": 38, "rt": 673, "response": "Alpha"}, "73": {"stimulus": 46, "trial": 73, "rt": 806, "response": "Beta"}, "72": {"stimulus": 35, "trial": 72, "rt": 1378, "response": "Alpha"}, "71": {"stimulus": 59, "trial": 71, "rt": 1327, "response": "Beta"}, "70": {"stimulus": 39, "trial": 70, "rt": 1487, "response": "Alpha"}, "59": {"stimulus": 21, "trial": 59, "rt": 624, "response": "Alpha"}, "79": {"stimulus": 9, "trial": 79, "rt": 851, "response": "Alpha"}, "58": {"stimulus": 63, "trial": 58, "rt": 600, "response": "Beta"}, "11": {"stimulus": 27, "trial": 11, "rt": 21861, "response": "Alpha"}, "10": {"stimulus": 79, "trial": 10, "rt": 769, "response": "Beta"}, "13": {"stimulus": 48, "trial": 13, "rt": 1220, "response": "Alpha"}, "12": {"stimulus": 36, "trial": 12, "rt": 814, "response": "Alpha"}, "15": {"stimulus": 40, "trial": 15, "rt": 953, "response": "Alpha"}, "14": {"stimulus": 2, "trial": 14, "rt": 986, "response": "Alpha"}, "17": {"stimulus": 53, "trial": 17, "rt": 1102, "response": "Beta"}, "16": {"stimulus": 29, "trial": 16, "rt": 885, "response": "Alpha"}, "19": {"stimulus": 50, "trial": 19, "rt": 1556, "response": "Beta"}, "18": {"stimulus": 68, "trial": 18, "rt": 870, "response": "Beta"}, "31": {"stimulus": 75, "trial": 31, "rt": 894, "response": "Beta"}, "30": {"stimulus": 38, "trial": 30, "rt": 854, "response": "Beta"}, "37": {"stimulus": 16, "trial": 37, "rt": 9188, "response": "Alpha"}, "36": {"stimulus": 47, "trial": 36, "rt": 607, "response": "Beta"}, "35": {"stimulus": 54, "trial": 35, "rt": 1388, "response": "Beta"}, "34": {"stimulus": 25, "trial": 34, "rt": 700, "response": "Alpha"}, "33": {"stimulus": 58, "trial": 33, "rt": 557, "response": "Beta"}, "55": {"stimulus": 69, "trial": 55, "rt": 1204, "response": "Beta"}, "74": {"stimulus": 71, "trial": 74, "rt": 589, "response": "Beta"}, "32": {"stimulus": 74, "trial": 32, "rt": 551, "response": "Beta"}, "57": {"stimulus": 19, "trial": 57, "rt": 648, "response": "Alpha"}, "50": {"stimulus": 56, "trial": 50, "rt": 1470, "response": "Beta"}}}