{"generation": {"1": {"stimulus": 17, "trial": 1, "rt": 10199}, "0": {"stimulus": 63, "trial": 0, "rt": 13523}, "3": {"stimulus": 28, "trial": 3, "rt": 8545}, "2": {"stimulus": 32, "trial": 2, "rt": 6802}}, "info": {"finish": 1482174713864, "participant": 38, "exposed": true, "lab": false, "start": 1482174414418, "counterbalance": 7, "condition": "Bottom", "browser": {"platform": "Win32", "userAgent": "Mozilla/5.0 (Windows NT 6.3; WOW64) AppleWebKit/537.36 (KHTML, like Gecko) Chrome/55.0.2883.87 Safari/537.36"}}, "experiment": {"Paradigm": "TACL", "Stimuli": "Size-Color Squares", "Experiment": "Generating-Categories"}, "observation": {"11": {"stimulus": 32, "trial": 11, "rt": 1230}, "10": {"stimulus": 14, "trial": 10, "rt": 1234}, "1": {"stimulus": 30, "trial": 1, "rt": 2689}, "0": {"stimulus": 12, "trial": 0, "rt": 3739}, "3": {"stimulus": 14, "trial": 3, "rt": 2114}, "2": {"stimulus": 32, "trial": 2, "rt": 2266}, "5": {"stimulus": 32, "trial": 5, "rt": 1443}, "4": {"stimulus": 12, "trial": 4, "rt": 1810}, "7": {"stimulus": 30, "trial": 7, "rt": 1563}, "6": {"stimulus": 14, "trial": 6, "rt": 1690}, "9": {"stimulus": 12, "trial": 9, "rt": 1232}, "8": {"stimulus": 30, "trial": 8, "rt": 1351}}, "generalization": {"56": {"stimulus": 73, "trial": 56, "rt": 1889, "response": "Alpha"}, "77": {"stimulus": 43, "trial": 77, "rt": 780, "response": "Beta"}, "54": {"stimulus": 44, "trial": 54, "rt": 1064, "response": "Beta"}, "42": {"stimulus": 65, "trial": 42, "rt": 804, "response": "Alpha"}, "48": {"stimulus": 27, "trial": 48, "rt": 830, "response": "Alpha"}, "43": {"stimulus": 50, "trial": 43, "rt": 1432, "response": "Beta"}, "60": {"stimulus": 48, "trial": 60, "rt": 1020, "response": "Alpha"}, "61": {"stimulus": 23, "trial": 61, "rt": 1682, "response": "Beta"}, "62": {"stimulus": 30, "trial": 62, "rt": 1398, "response": "Alpha"}, "63": {"stimulus": 8, "trial": 63, "rt": 1256, "response": "Beta"}, "64": {"stimulus": 1, "trial": 64, "rt": 2103, "response": "Alpha"}, "49": {"stimulus": 71, "trial": 49, "rt": 1379, "response": "Beta"}, "66": {"stimulus": 33, "trial": 66, "rt": 810, "response": "Beta"}, "67": {"stimulus": 63, "trial": 67, "rt": 1279, "response": "Alpha"}, "68": {"stimulus": 22, "trial": 68, "rt": 1105, "response": "Beta"}, "69": {"stimulus": 52, "trial": 69, "rt": 754, "response": "Beta"}, "80": {"stimulus": 18, "trial": 80, "rt": 1546, "response": "Alpha"}, "52": {"stimulus": 46, "trial": 52, "rt": 1217, "response": "Alpha"}, "53": {"stimulus": 7, "trial": 53, "rt": 1484, "response": "Beta"}, "24": {"stimulus": 59, "trial": 24, "rt": 1797, "response": "Beta"}, "25": {"stimulus": 16, "trial": 25, "rt": 1153, "response": "Beta"}, "26": {"stimulus": 75, "trial": 26, "rt": 1623, "response": "Alpha"}, "27": {"stimulus": 24, "trial": 27, "rt": 1317, "response": "Beta"}, "20": {"stimulus": 10, "trial": 20, "rt": 1091, "response": "Alpha"}, "21": {"stimulus": 72, "trial": 21, "rt": 1066, "response": "Alpha"}, "22": {"stimulus": 79, "trial": 22, "rt": 1148, "response": "Beta"}, "23": {"stimulus": 51, "trial": 23, "rt": 1288, "response": "Beta"}, "46": {"stimulus": 36, "trial": 46, "rt": 1063, "response": "Beta"}, "47": {"stimulus": 45, "trial": 47, "rt": 1102, "response": "Alpha"}, "44": {"stimulus": 0, "trial": 44, "rt": 1113, "response": "Alpha"}, "45": {"stimulus": 42, "trial": 45, "rt": 1184, "response": "Beta"}, "28": {"stimulus": 54, "trial": 28, "rt": 1445, "response": "Alpha"}, "29": {"stimulus": 67, "trial": 29, "rt": 3850, "response": "Beta"}, "40": {"stimulus": 20, "trial": 40, "rt": 1317, "response": "Beta"}, "41": {"stimulus": 38, "trial": 41, "rt": 1360, "response": "Alpha"}, "1": {"stimulus": 29, "trial": 1, "rt": 1439, "response": "Alpha"}, "0": {"stimulus": 2, "trial": 0, "rt": 4136, "response": "Beta"}, "3": {"stimulus": 74, "trial": 3, "rt": 1669, "response": "Beta"}, "2": {"stimulus": 39, "trial": 2, "rt": 1457, "response": "Alpha"}, "5": {"stimulus": 4, "trial": 5, "rt": 1460, "response": "Beta"}, "4": {"stimulus": 21, "trial": 4, "rt": 2305, "response": "Beta"}, "7": {"stimulus": 17, "trial": 7, "rt": 2137, "response": "Beta"}, "6": {"stimulus": 3, "trial": 6, "rt": 1412, "response": "Alpha"}, "9": {"stimulus": 28, "trial": 9, "rt": 1440, "response": "Alpha"}, "8": {"stimulus": 37, "trial": 8, "rt": 2368, "response": "Alpha"}, "78": {"stimulus": 66, "trial": 78, "rt": 1608, "response": "Alpha"}, "51": {"stimulus": 15, "trial": 51, "rt": 1473, "response": "Beta"}, "39": {"stimulus": 61, "trial": 39, "rt": 1101, "response": "Beta"}, "65": {"stimulus": 32, "trial": 65, "rt": 1291, "response": "Beta"}, "76": {"stimulus": 80, "trial": 76, "rt": 1251, "response": "Beta"}, "75": {"stimulus": 58, "trial": 75, "rt": 3696, "response": "Alpha"}, "38": {"stimulus": 5, "trial": 38, "rt": 1008, "response": "Beta"}, "73": {"stimulus": 31, "trial": 73, "rt": 11471, "response": "Beta"}, "72": {"stimulus": 55, "trial": 72, "rt": 1464, "response": "Alpha"}, "71": {"stimulus": 76, "trial": 71, "rt": 1277, "response": "Alpha"}, "70": {"stimulus": 25, "trial": 70, "rt": 550, "response": "Beta"}, "59": {"stimulus": 56, "trial": 59, "rt": 802, "response": "Alpha"}, "79": {"stimulus": 60, "trial": 79, "rt": 1241, "response": "Beta"}, "58": {"stimulus": 64, "trial": 58, "rt": 925, "response": "Alpha"}, "11": {"stimulus": 35, "trial": 11, "rt": 1409, "response": "Beta"}, "10": {"stimulus": 53, "trial": 10, "rt": 1524, "response": "Beta"}, "13": {"stimulus": 6, "trial": 13, "rt": 1743, "response": "Beta"}, "12": {"stimulus": 77, "trial": 12, "rt": 2524, "response": "Beta"}, "15": {"stimulus": 69, "trial": 15, "rt": 1118, "response": "Beta"}, "14": {"stimulus": 49, "trial": 14, "rt": 1829, "response": "Alpha"}, "17": {"stimulus": 62, "trial": 17, "rt": 1107, "response": "Beta"}, "16": {"stimulus": 12, "trial": 16, "rt": 2324, "response": "Beta"}, "19": {"stimulus": 70, "trial": 19, "rt": 1050, "response": "Beta"}, "18": {"stimulus": 26, "trial": 18, "rt": 1194, "response": "Beta"}, "31": {"stimulus": 57, "trial": 31, "rt": 1466, "response": "Alpha"}, "30": {"stimulus": 14, "trial": 30, "rt": 1100, "response": "Beta"}, "37": {"stimulus": 11, "trial": 37, "rt": 746, "response": "Alpha"}, "36": {"stimulus": 19, "trial": 36, "rt": 1115, "response": "Alpha"}, "35": {"stimulus": 34, "trial": 35, "rt": 3084, "response": "Beta"}, "34": {"stimulus": 68, "trial": 34, "rt": 3702, "response": "Beta"}, "33": {"stimulus": 41, "trial": 33, "rt": 1351, "response": "Beta"}, "55": {"stimulus": 40, "trial": 55, "rt": 1561, "response": "Beta"}, "74": {"stimulus": 78, "trial": 74, "rt": 1058, "response": "Beta"}, "32": {"stimulus": 9, "trial": 32, "rt": 1803, "response": "Alpha"}, "57": {"stimulus": 47, "trial": 57, "rt": 1091, "response": "Alpha"}, "50": {"stimulus": 13, "trial": 50, "rt": 1314, "response": "Beta"}}}