{"generation": {"1": {"stimulus": 64, "trial": 1, "rt": 17034}, "0": {"stimulus": 72, "trial": 0, "rt": 34166}, "3": {"stimulus": 36, "trial": 3, "rt": 7973}, "2": {"stimulus": 54, "trial": 2, "rt": 7746}}, "info": {"participant": 41, "exposed": true, "lab": false, "start": 1482174415182, "counterbalance": 6, "condition": "Bottom", "browser": {"platform": "Win64", "userAgent": "Mozilla/5.0 (Windows NT 10.0; Win64; x64; rv:50.0) Gecko/20100101 Firefox/50.0.2 Waterfox/50.0.2"}}, "experiment": {"Paradigm": "TACL", "Stimuli": "Size-Color Squares", "Experiment": "Generating-Categories"}, "observation": {"11": {"stimulus": 14, "trial": 11, "rt": 1245}, "10": {"stimulus": 12, "trial": 10, "rt": 1236}, "1": {"stimulus": 14, "trial": 1, "rt": 2025}, "0": {"stimulus": 12, "trial": 0, "rt": 3096}, "3": {"stimulus": 30, "trial": 3, "rt": 2638}, "2": {"stimulus": 32, "trial": 2, "rt": 1949}, "5": {"stimulus": 32, "trial": 5, "rt": 1361}, "4": {"stimulus": 30, "trial": 4, "rt": 2021}, "7": {"stimulus": 12, "trial": 7, "rt": 1268}, "6": {"stimulus": 14, "trial": 6, "rt": 1570}, "9": {"stimulus": 30, "trial": 9, "rt": 1245}, "8": {"stimulus": 32, "trial": 8, "rt": 1804}}, "generalization": {"56": {"stimulus": 80, "trial": 56, "rt": 1129, "response": "Alpha"}, "77": {"stimulus": 9, "trial": 77, "rt": 699, "response": "Beta"}, "54": {"stimulus": 74, "trial": 54, "rt": 856, "response": "Beta"}, "42": {"stimulus": 57, "trial": 42, "rt": 1115, "response": "Alpha"}, "48": {"stimulus": 18, "trial": 48, "rt": 686, "response": "Beta"}, "43": {"stimulus": 10, "trial": 43, "rt": 4152, "response": "Beta"}, "60": {"stimulus": 47, "trial": 60, "rt": 1493, "response": "Beta"}, "61": {"stimulus": 76, "trial": 61, "rt": 1303, "response": "Alpha"}, "62": {"stimulus": 56, "trial": 62, "rt": 1703, "response": "Beta"}, "63": {"stimulus": 41, "trial": 63, "rt": 1335, "response": "Alpha"}, "64": {"stimulus": 21, "trial": 64, "rt": 3743, "response": "Alpha"}, "49": {"stimulus": 50, "trial": 49, "rt": 1228, "response": "Alpha"}, "66": {"stimulus": 1, "trial": 66, "rt": 3091, "response": "Beta"}, "67": {"stimulus": 12, "trial": 67, "rt": 812, "response": "Alpha"}, "68": {"stimulus": 25, "trial": 68, "rt": 887, "response": "Alpha"}, "69": {"stimulus": 79, "trial": 69, "rt": 633, "response": "Alpha"}, "80": {"stimulus": 16, "trial": 80, "rt": 588, "response": "Alpha"}, "52": {"stimulus": 32, "trial": 52, "rt": 1770, "response": "Alpha"}, "53": {"stimulus": 64, "trial": 53, "rt": 1626, "response": "Beta"}, "24": {"stimulus": 19, "trial": 24, "rt": 2251, "response": "Beta"}, "25": {"stimulus": 62, "trial": 25, "rt": 1852, "response": "Alpha"}, "26": {"stimulus": 23, "trial": 26, "rt": 990, "response": "Alpha"}, "27": {"stimulus": 26, "trial": 27, "rt": 670, "response": "Alpha"}, "20": {"stimulus": 45, "trial": 20, "rt": 2170, "response": "Beta"}, "21": {"stimulus": 6, "trial": 21, "rt": 1391, "response": "Alpha"}, "22": {"stimulus": 8, "trial": 22, "rt": 797, "response": "Alpha"}, "23": {"stimulus": 7, "trial": 23, "rt": 755, "response": "Alpha"}, "46": {"stimulus": 75, "trial": 46, "rt": 979, "response": "Alpha"}, "47": {"stimulus": 73, "trial": 47, "rt": 1497, "response": "Beta"}, "44": {"stimulus": 14, "trial": 44, "rt": 1230, "response": "Alpha"}, "45": {"stimulus": 71, "trial": 45, "rt": 818, "response": "Alpha"}, "28": {"stimulus": 43, "trial": 28, "rt": 850, "response": "Alpha"}, "29": {"stimulus": 51, "trial": 29, "rt": 882, "response": "Alpha"}, "40": {"stimulus": 70, "trial": 40, "rt": 1943, "response": "Alpha"}, "41": {"stimulus": 59, "trial": 41, "rt": 948, "response": "Alpha"}, "1": {"stimulus": 36, "trial": 1, "rt": 1687, "response": "Beta"}, "0": {"stimulus": 60, "trial": 0, "rt": 4168, "response": "Alpha"}, "3": {"stimulus": 38, "trial": 3, "rt": 5170, "response": "Beta"}, "2": {"stimulus": 28, "trial": 2, "rt": 3387, "response": "Beta"}, "5": {"stimulus": 44, "trial": 5, "rt": 1075, "response": "Alpha"}, "4": {"stimulus": 49, "trial": 4, "rt": 1424, "response": "Alpha"}, "7": {"stimulus": 39, "trial": 7, "rt": 2497, "response": "Alpha"}, "6": {"stimulus": 52, "trial": 6, "rt": 1003, "response": "Alpha"}, "9": {"stimulus": 15, "trial": 9, "rt": 1329, "response": "Alpha"}, "8": {"stimulus": 72, "trial": 8, "rt": 1571, "response": "Beta"}, "78": {"stimulus": 22, "trial": 78, "rt": 1623, "response": "Alpha"}, "51": {"stimulus": 5, "trial": 51, "rt": 1045, "response": "Alpha"}, "39": {"stimulus": 37, "trial": 39, "rt": 1525, "response": "Beta"}, "65": {"stimulus": 61, "trial": 65, "rt": 1120, "response": "Alpha"}, "76": {"stimulus": 2, "trial": 76, "rt": 1773, "response": "Beta"}, "75": {"stimulus": 65, "trial": 75, "rt": 1463, "response": "Beta"}, "38": {"stimulus": 17, "trial": 38, "rt": 9926, "response": "Alpha"}, "73": {"stimulus": 34, "trial": 73, "rt": 1015, "response": "Alpha"}, "72": {"stimulus": 11, "trial": 72, "rt": 1158, "response": "Beta"}, "71": {"stimulus": 68, "trial": 71, "rt": 595, "response": "Alpha"}, "70": {"stimulus": 58, "trial": 70, "rt": 1442, "response": "Alpha"}, "59": {"stimulus": 42, "trial": 59, "rt": 732, "response": "Alpha"}, "79": {"stimulus": 77, "trial": 79, "rt": 734, "response": "Alpha"}, "58": {"stimulus": 67, "trial": 58, "rt": 716, "response": "Alpha"}, "11": {"stimulus": 29, "trial": 11, "rt": 1803, "response": "Beta"}, "10": {"stimulus": 33, "trial": 10, "rt": 1842, "response": "Alpha"}, "13": {"stimulus": 54, "trial": 13, "rt": 3019, "response": "Beta"}, "12": {"stimulus": 69, "trial": 12, "rt": 1315, "response": "Alpha"}, "15": {"stimulus": 27, "trial": 15, "rt": 1384, "response": "Beta"}, "14": {"stimulus": 4, "trial": 14, "rt": 1459, "response": "Alpha"}, "17": {"stimulus": 35, "trial": 17, "rt": 1163, "response": "Alpha"}, "16": {"stimulus": 31, "trial": 16, "rt": 1486, "response": "Alpha"}, "19": {"stimulus": 66, "trial": 19, "rt": 1586, "response": "Alpha"}, "18": {"stimulus": 63, "trial": 18, "rt": 1238, "response": "Beta"}, "31": {"stimulus": 0, "trial": 31, "rt": 1826, "response": "Beta"}, "30": {"stimulus": 48, "trial": 30, "rt": 2546, "response": "Beta"}, "37": {"stimulus": 46, "trial": 37, "rt": 2098, "response": "Beta"}, "36": {"stimulus": 55, "trial": 36, "rt": 2454, "response": "Beta"}, "35": {"stimulus": 53, "trial": 35, "rt": 1391, "response": "Alpha"}, "34": {"stimulus": 13, "trial": 34, "rt": 1044, "response": "Alpha"}, "33": {"stimulus": 30, "trial": 33, "rt": 1858, "response": "Alpha"}, "55": {"stimulus": 3, "trial": 55, "rt": 1330, "response": "Alpha"}, "74": {"stimulus": 40, "trial": 74, "rt": 8145, "response": "Alpha"}, "32": {"stimulus": 78, "trial": 32, "rt": 989, "response": "Alpha"}, "57": {"stimulus": 24, "trial": 57, "rt": 701, "response": "Alpha"}, "50": {"stimulus": 20, "trial": 50, "rt": 1982, "response": "Alpha"}}}2, "response": "Alpha"}}}