{"generation": {"1": {"stimulus": 72, "trial": 1, "rt": 4864}, "0": {"stimulus": 0, "trial": 0, "rt": 13799}, "3": {"stimulus": 74, "trial": 3, "rt": 11322}, "2": {"stimulus": 80, "trial": 2, "rt": 11203}}, "info": {"finish": 1482174732376, "participant": 42, "exposed": true, "lab": false, "start": 1482174416518, "counterbalance": 3, "condition": "Bottom", "browser": {"platform": "Win32", "userAgent": "Mozilla/5.0 (Windows NT 10.0; WOW64) AppleWebKit/537.36 (KHTML, like Gecko) Chrome/55.0.2883.87 Safari/537.36"}}, "experiment": {"Paradigm": "TACL", "Stimuli": "Size-Color Squares", "Experiment": "Generating-Categories"}, "observation": {"11": {"stimulus": 12, "trial": 11, "rt": 1458}, "10": {"stimulus": 14, "trial": 10, "rt": 1204}, "1": {"stimulus": 12, "trial": 1, "rt": 5102}, "0": {"stimulus": 30, "trial": 0, "rt": 9968}, "3": {"stimulus": 14, "trial": 3, "rt": 3208}, "2": {"stimulus": 32, "trial": 2, "rt": 4872}, "5": {"stimulus": 30, "trial": 5, "rt": 2098}, "4": {"stimulus": 12, "trial": 4, "rt": 2463}, "7": {"stimulus": 14, "trial": 7, "rt": 1519}, "6": {"stimulus": 32, "trial": 6, "rt": 2252}, "9": {"stimulus": 30, "trial": 9, "rt": 1549}, "8": {"stimulus": 32, "trial": 8, "rt": 2226}}, "generalization": {"56": {"stimulus": 60, "trial": 56, "rt": 2133, "response": "Alpha"}, "77": {"stimulus": 67, "trial": 77, "rt": 954, "response": "Alpha"}, "54": {"stimulus": 27, "trial": 54, "rt": 776, "response": "Alpha"}, "42": {"stimulus": 47, "trial": 42, "rt": 769, "response": "Alpha"}, "48": {"stimulus": 23, "trial": 48, "rt": 754, "response": "Alpha"}, "43": {"stimulus": 16, "trial": 43, "rt": 759, "response": "Alpha"}, "60": {"stimulus": 35, "trial": 60, "rt": 720, "response": "Alpha"}, "61": {"stimulus": 25, "trial": 61, "rt": 628, "response": "Alpha"}, "62": {"stimulus": 39, "trial": 62, "rt": 700, "response": "Alpha"}, "63": {"stimulus": 41, "trial": 63, "rt": 617, "response": "Alpha"}, "64": {"stimulus": 80, "trial": 64, "rt": 803, "response": "Beta"}, "49": {"stimulus": 11, "trial": 49, "rt": 798, "response": "Alpha"}, "66": {"stimulus": 54, "trial": 66, "rt": 739, "response": "Alpha"}, "67": {"stimulus": 76, "trial": 67, "rt": 864, "response": "Beta"}, "68": {"stimulus": 56, "trial": 68, "rt": 815, "response": "Alpha"}, "69": {"stimulus": 57, "trial": 69, "rt": 803, "response": "Alpha"}, "80": {"stimulus": 50, "trial": 80, "rt": 727, "response": "Alpha"}, "52": {"stimulus": 45, "trial": 52, "rt": 870, "response": "Alpha"}, "53": {"stimulus": 7, "trial": 53, "rt": 763, "response": "Alpha"}, "24": {"stimulus": 10, "trial": 24, "rt": 838, "response": "Alpha"}, "25": {"stimulus": 70, "trial": 25, "rt": 859, "response": "Beta"}, "26": {"stimulus": 51, "trial": 26, "rt": 841, "response": "Alpha"}, "27": {"stimulus": 3, "trial": 27, "rt": 2214, "response": "Alpha"}, "20": {"stimulus": 28, "trial": 20, "rt": 879, "response": "Alpha"}, "21": {"stimulus": 62, "trial": 21, "rt": 1334, "response": "Alpha"}, "22": {"stimulus": 5, "trial": 22, "rt": 860, "response": "Alpha"}, "23": {"stimulus": 68, "trial": 23, "rt": 2557, "response": "Beta"}, "46": {"stimulus": 38, "trial": 46, "rt": 725, "response": "Alpha"}, "47": {"stimulus": 30, "trial": 47, "rt": 816, "response": "Alpha"}, "44": {"stimulus": 43, "trial": 44, "rt": 717, "response": "Alpha"}, "45": {"stimulus": 49, "trial": 45, "rt": 726, "response": "Alpha"}, "28": {"stimulus": 46, "trial": 28, "rt": 2660, "response": "Alpha"}, "29": {"stimulus": 19, "trial": 29, "rt": 854, "response": "Alpha"}, "40": {"stimulus": 44, "trial": 40, "rt": 822, "response": "Alpha"}, "41": {"stimulus": 71, "trial": 41, "rt": 861, "response": "Beta"}, "1": {"stimulus": 66, "trial": 1, "rt": 1280, "response": "Beta"}, "0": {"stimulus": 42, "trial": 0, "rt": 2854, "response": "Alpha"}, "3": {"stimulus": 48, "trial": 3, "rt": 6018, "response": "Alpha"}, "2": {"stimulus": 22, "trial": 2, "rt": 1186, "response": "Alpha"}, "5": {"stimulus": 0, "trial": 5, "rt": 2026, "response": "Alpha"}, "4": {"stimulus": 69, "trial": 4, "rt": 1334, "response": "Beta"}, "7": {"stimulus": 21, "trial": 7, "rt": 1005, "response": "Alpha"}, "6": {"stimulus": 32, "trial": 6, "rt": 3037, "response": "Alpha"}, "9": {"stimulus": 58, "trial": 9, "rt": 3323, "response": "Alpha"}, "8": {"stimulus": 12, "trial": 8, "rt": 761, "response": "Alpha"}, "78": {"stimulus": 63, "trial": 78, "rt": 1845, "response": "Beta"}, "51": {"stimulus": 20, "trial": 51, "rt": 782, "response": "Alpha"}, "39": {"stimulus": 78, "trial": 39, "rt": 900, "response": "Beta"}, "65": {"stimulus": 64, "trial": 65, "rt": 663, "response": "Beta"}, "76": {"stimulus": 17, "trial": 76, "rt": 797, "response": "Alpha"}, "75": {"stimulus": 37, "trial": 75, "rt": 809, "response": "Alpha"}, "38": {"stimulus": 52, "trial": 38, "rt": 817, "response": "Alpha"}, "73": {"stimulus": 13, "trial": 73, "rt": 679, "response": "Alpha"}, "72": {"stimulus": 33, "trial": 72, "rt": 695, "response": "Alpha"}, "71": {"stimulus": 6, "trial": 71, "rt": 728, "response": "Alpha"}, "70": {"stimulus": 73, "trial": 70, "rt": 783, "response": "Beta"}, "59": {"stimulus": 34, "trial": 59, "rt": 891, "response": "Alpha"}, "79": {"stimulus": 74, "trial": 79, "rt": 847, "response": "Beta"}, "58": {"stimulus": 79, "trial": 58, "rt": 850, "response": "Beta"}, "11": {"stimulus": 77, "trial": 11, "rt": 953, "response": "Beta"}, "10": {"stimulus": 61, "trial": 10, "rt": 4066, "response": "Alpha"}, "13": {"stimulus": 36, "trial": 13, "rt": 1042, "response": "Alpha"}, "12": {"stimulus": 26, "trial": 12, "rt": 1081, "response": "Alpha"}, "15": {"stimulus": 72, "trial": 15, "rt": 1062, "response": "Beta"}, "14": {"stimulus": 75, "trial": 14, "rt": 1004, "response": "Beta"}, "17": {"stimulus": 18, "trial": 17, "rt": 997, "response": "Alpha"}, "16": {"stimulus": 15, "trial": 16, "rt": 2103, "response": "Alpha"}, "19": {"stimulus": 4, "trial": 19, "rt": 1693, "response": "Alpha"}, "18": {"stimulus": 29, "trial": 18, "rt": 927, "response": "Alpha"}, "31": {"stimulus": 14, "trial": 31, "rt": 790, "response": "Alpha"}, "30": {"stimulus": 55, "trial": 30, "rt": 1110, "response": "Alpha"}, "37": {"stimulus": 24, "trial": 37, "rt": 815, "response": "Alpha"}, "36": {"stimulus": 59, "trial": 36, "rt": 969, "response": "Alpha"}, "35": {"stimulus": 8, "trial": 35, "rt": 773, "response": "Alpha"}, "34": {"stimulus": 2, "trial": 34, "rt": 727, "response": "Alpha"}, "33": {"stimulus": 53, "trial": 33, "rt": 893, "response": "Alpha"}, "55": {"stimulus": 9, "trial": 55, "rt": 742, "response": "Alpha"}, "74": {"stimulus": 40, "trial": 74, "rt": 769, "response": "Alpha"}, "32": {"stimulus": 1, "trial": 32, "rt": 694, "response": "Alpha"}, "57": {"stimulus": 65, "trial": 57, "rt": 980, "response": "Beta"}, "50": {"stimulus": 31, "trial": 50, "rt": 721, "response": "Alpha"}}}