{"generation": {"1": {"stimulus": 80, "trial": 1, "rt": 14696}, "0": {"stimulus": 75, "trial": 0, "rt": 25132}, "3": {"stimulus": 8, "trial": 3, "rt": 6003}, "2": {"stimulus": 0, "trial": 2, "rt": 6155}}, "info": {"finish": 1482174678006, "participant": 43, "exposed": true, "lab": false, "start": 1482174381676, "counterbalance": 3, "condition": "Middle", "browser": {"platform": "Win32", "userAgent": "Mozilla/5.0 (Windows NT 10.0; WOW64) AppleWebKit/537.36 (KHTML, like Gecko) Chrome/55.0.2883.87 Safari/537.36"}}, "experiment": {"Paradigm": "TACL", "Stimuli": "Size-Color Squares", "Experiment": "Generating-Categories"}, "observation": {"11": {"stimulus": 50, "trial": 11, "rt": 1013}, "10": {"stimulus": 32, "trial": 10, "rt": 894}, "1": {"stimulus": 30, "trial": 1, "rt": 16997}, "0": {"stimulus": 48, "trial": 0, "rt": 3583}, "3": {"stimulus": 32, "trial": 3, "rt": 1405}, "2": {"stimulus": 50, "trial": 2, "rt": 1682}, "5": {"stimulus": 32, "trial": 5, "rt": 1113}, "4": {"stimulus": 30, "trial": 4, "rt": 1336}, "7": {"stimulus": 48, "trial": 7, "rt": 1102}, "6": {"stimulus": 50, "trial": 6, "rt": 1003}, "9": {"stimulus": 30, "trial": 9, "rt": 877}, "8": {"stimulus": 48, "trial": 8, "rt": 954}}, "generalization": {"56": {"stimulus": 20, "trial": 56, "rt": 706, "response": "Alpha"}, "77": {"stimulus": 23, "trial": 77, "rt": 789, "response": "Alpha"}, "54": {"stimulus": 77, "trial": 54, "rt": 1063, "response": "Beta"}, "42": {"stimulus": 64, "trial": 42, "rt": 776, "response": "Beta"}, "48": {"stimulus": 54, "trial": 48, "rt": 845, "response": "Alpha"}, "43": {"stimulus": 0, "trial": 43, "rt": 1073, "response": "Beta"}, "60": {"stimulus": 35, "trial": 60, "rt": 729, "response": "Alpha"}, "61": {"stimulus": 6, "trial": 61, "rt": 1198, "response": "Beta"}, "62": {"stimulus": 73, "trial": 62, "rt": 976, "response": "Beta"}, "63": {"stimulus": 74, "trial": 63, "rt": 654, "response": "Beta"}, "64": {"stimulus": 75, "trial": 64, "rt": 681, "response": "Beta"}, "49": {"stimulus": 68, "trial": 49, "rt": 922, "response": "Beta"}, "66": {"stimulus": 31, "trial": 66, "rt": 704, "response": "Alpha"}, "67": {"stimulus": 43, "trial": 67, "rt": 818, "response": "Alpha"}, "68": {"stimulus": 15, "trial": 68, "rt": 547, "response": "Alpha"}, "69": {"stimulus": 9, "trial": 69, "rt": 627, "response": "Alpha"}, "80": {"stimulus": 30, "trial": 80, "rt": 603, "response": "Alpha"}, "52": {"stimulus": 12, "trial": 52, "rt": 1395, "response": "Alpha"}, "53": {"stimulus": 38, "trial": 53, "rt": 779, "response": "Alpha"}, "24": {"stimulus": 63, "trial": 24, "rt": 1110, "response": "Beta"}, "25": {"stimulus": 61, "trial": 25, "rt": 960, "response": "Beta"}, "26": {"stimulus": 48, "trial": 26, "rt": 1672, "response": "Alpha"}, "27": {"stimulus": 13, "trial": 27, "rt": 1530, "response": "Alpha"}, "20": {"stimulus": 26, "trial": 20, "rt": 834, "response": "Alpha"}, "21": {"stimulus": 76, "trial": 21, "rt": 964, "response": "Beta"}, "22": {"stimulus": 49, "trial": 22, "rt": 1382, "response": "Alpha"}, "23": {"stimulus": 16, "trial": 23, "rt": 2884, "response": "Alpha"}, "46": {"stimulus": 57, "trial": 46, "rt": 1071, "response": "Alpha"}, "47": {"stimulus": 18, "trial": 47, "rt": 972, "response": "Alpha"}, "44": {"stimulus": 67, "trial": 44, "rt": 876, "response": "Beta"}, "45": {"stimulus": 71, "trial": 45, "rt": 1025, "response": "Beta"}, "28": {"stimulus": 24, "trial": 28, "rt": 851, "response": "Alpha"}, "29": {"stimulus": 42, "trial": 29, "rt": 937, "response": "Alpha"}, "40": {"stimulus": 66, "trial": 40, "rt": 1318, "response": "Beta"}, "41": {"stimulus": 39, "trial": 41, "rt": 1070, "response": "Alpha"}, "1": {"stimulus": 72, "trial": 1, "rt": 1043, "response": "Beta"}, "0": {"stimulus": 2, "trial": 0, "rt": 3778, "response": "Alpha"}, "3": {"stimulus": 52, "trial": 3, "rt": 1422, "response": "Alpha"}, "2": {"stimulus": 14, "trial": 2, "rt": 1097, "response": "Alpha"}, "5": {"stimulus": 36, "trial": 5, "rt": 747, "response": "Alpha"}, "4": {"stimulus": 29, "trial": 4, "rt": 1084, "response": "Alpha"}, "7": {"stimulus": 28, "trial": 7, "rt": 841, "response": "Alpha"}, "6": {"stimulus": 59, "trial": 6, "rt": 1063, "response": "Alpha"}, "9": {"stimulus": 25, "trial": 9, "rt": 831, "response": "Alpha"}, "8": {"stimulus": 50, "trial": 8, "rt": 763, "response": "Alpha"}, "78": {"stimulus": 1, "trial": 78, "rt": 1088, "response": "Alpha"}, "51": {"stimulus": 3, "trial": 51, "rt": 993, "response": "Beta"}, "39": {"stimulus": 8, "trial": 39, "rt": 915, "response": "Beta"}, "65": {"stimulus": 33, "trial": 65, "rt": 1373, "response": "Alpha"}, "76": {"stimulus": 51, "trial": 76, "rt": 753, "response": "Alpha"}, "75": {"stimulus": 7, "trial": 75, "rt": 1210, "response": "Beta"}, "38": {"stimulus": 45, "trial": 38, "rt": 981, "response": "Alpha"}, "73": {"stimulus": 55, "trial": 73, "rt": 3207, "response": "Beta"}, "72": {"stimulus": 17, "trial": 72, "rt": 800, "response": "Alpha"}, "71": {"stimulus": 5, "trial": 71, "rt": 2061, "response": "Alpha"}, "70": {"stimulus": 60, "trial": 70, "rt": 694, "response": "Alpha"}, "59": {"stimulus": 34, "trial": 59, "rt": 727, "response": "Alpha"}, "79": {"stimulus": 22, "trial": 79, "rt": 643, "response": "Alpha"}, "58": {"stimulus": 79, "trial": 58, "rt": 1101, "response": "Beta"}, "11": {"stimulus": 4, "trial": 11, "rt": 1439, "response": "Beta"}, "10": {"stimulus": 11, "trial": 10, "rt": 821, "response": "Alpha"}, "13": {"stimulus": 70, "trial": 13, "rt": 1440, "response": "Beta"}, "12": {"stimulus": 19, "trial": 12, "rt": 817, "response": "Alpha"}, "15": {"stimulus": 80, "trial": 15, "rt": 1121, "response": "Beta"}, "14": {"stimulus": 40, "trial": 14, "rt": 979, "response": "Alpha"}, "17": {"stimulus": 27, "trial": 17, "rt": 2085, "response": "Alpha"}, "16": {"stimulus": 41, "trial": 16, "rt": 1046, "response": "Alpha"}, "19": {"stimulus": 10, "trial": 19, "rt": 1332, "response": "Alpha"}, "18": {"stimulus": 44, "trial": 18, "rt": 919, "response": "Alpha"}, "31": {"stimulus": 46, "trial": 31, "rt": 894, "response": "Alpha"}, "30": {"stimulus": 78, "trial": 30, "rt": 787, "response": "Beta"}, "37": {"stimulus": 21, "trial": 37, "rt": 1176, "response": "Alpha"}, "36": {"stimulus": 56, "trial": 36, "rt": 1100, "response": "Alpha"}, "35": {"stimulus": 65, "trial": 35, "rt": 925, "response": "Beta"}, "34": {"stimulus": 62, "trial": 34, "rt": 1021, "response": "Alpha"}, "33": {"stimulus": 47, "trial": 33, "rt": 758, "response": "Alpha"}, "55": {"stimulus": 37, "trial": 55, "rt": 747, "response": "Alpha"}, "74": {"stimulus": 53, "trial": 74, "rt": 752, "response": "Alpha"}, "32": {"stimulus": 58, "trial": 32, "rt": 819, "response": "Alpha"}, "57": {"stimulus": 69, "trial": 57, "rt": 989, "response": "Beta"}, "50": {"stimulus": 32, "trial": 50, "rt": 859, "response": "Alpha"}}}