{"generation": {"1": {"stimulus": 8, "trial": 1, "rt": 31489}, "0": {"stimulus": 80, "trial": 0, "rt": 14986}, "3": {"stimulus": 72, "trial": 3, "rt": 5497}, "2": {"stimulus": 0, "trial": 2, "rt": 9764}}, "info": {"finish": 1482174645085, "participant": 44, "exposed": true, "lab": false, "start": 1482174419214, "counterbalance": 0, "condition": "Middle", "browser": {"platform": "Win32", "userAgent": "Mozilla/5.0 (Windows NT 6.1; WOW64) AppleWebKit/537.36 (KHTML, like Gecko) Chrome/55.0.2883.87 Safari/537.36"}}, "experiment": {"Paradigm": "TACL", "Stimuli": "Size-Color Squares", "Experiment": "Generating-Categories"}, "observation": {"11": {"stimulus": 48, "trial": 11, "rt": 929}, "10": {"stimulus": 32, "trial": 10, "rt": 908}, "1": {"stimulus": 48, "trial": 1, "rt": 3202}, "0": {"stimulus": 32, "trial": 0, "rt": 21204}, "3": {"stimulus": 50, "trial": 3, "rt": 1282}, "2": {"stimulus": 30, "trial": 2, "rt": 1442}, "5": {"stimulus": 30, "trial": 5, "rt": 1151}, "4": {"stimulus": 48, "trial": 4, "rt": 995}, "7": {"stimulus": 50, "trial": 7, "rt": 939}, "6": {"stimulus": 32, "trial": 6, "rt": 922}, "9": {"stimulus": 50, "trial": 9, "rt": 850}, "8": {"stimulus": 30, "trial": 8, "rt": 835}}, "generalization": {"56": {"stimulus": 49, "trial": 56, "rt": 499, "response": "Alpha"}, "77": {"stimulus": 79, "trial": 77, "rt": 1657, "response": "Beta"}, "54": {"stimulus": 75, "trial": 54, "rt": 547, "response": "Alpha"}, "42": {"stimulus": 51, "trial": 42, "rt": 563, "response": "Alpha"}, "48": {"stimulus": 8, "trial": 48, "rt": 666, "response": "Beta"}, "43": {"stimulus": 54, "trial": 43, "rt": 634, "response": "Alpha"}, "60": {"stimulus": 74, "trial": 60, "rt": 1226, "response": "Beta"}, "61": {"stimulus": 68, "trial": 61, "rt": 691, "response": "Alpha"}, "62": {"stimulus": 16, "trial": 62, "rt": 746, "response": "Alpha"}, "63": {"stimulus": 55, "trial": 63, "rt": 508, "response": "Alpha"}, "64": {"stimulus": 26, "trial": 64, "rt": 458, "response": "Alpha"}, "49": {"stimulus": 37, "trial": 49, "rt": 651, "response": "Alpha"}, "66": {"stimulus": 10, "trial": 66, "rt": 803, "response": "Alpha"}, "67": {"stimulus": 45, "trial": 67, "rt": 547, "response": "Alpha"}, "68": {"stimulus": 43, "trial": 68, "rt": 531, "response": "Alpha"}, "69": {"stimulus": 1, "trial": 69, "rt": 852, "response": "Beta"}, "80": {"stimulus": 39, "trial": 80, "rt": 903, "response": "Alpha"}, "52": {"stimulus": 76, "trial": 52, "rt": 993, "response": "Alpha"}, "53": {"stimulus": 27, "trial": 53, "rt": 554, "response": "Alpha"}, "24": {"stimulus": 30, "trial": 24, "rt": 531, "response": "Alpha"}, "25": {"stimulus": 61, "trial": 25, "rt": 475, "response": "Alpha"}, "26": {"stimulus": 44, "trial": 26, "rt": 603, "response": "Alpha"}, "27": {"stimulus": 62, "trial": 27, "rt": 611, "response": "Alpha"}, "20": {"stimulus": 42, "trial": 20, "rt": 500, "response": "Alpha"}, "21": {"stimulus": 71, "trial": 21, "rt": 538, "response": "Alpha"}, "22": {"stimulus": 56, "trial": 22, "rt": 483, "response": "Alpha"}, "23": {"stimulus": 66, "trial": 23, "rt": 459, "response": "Alpha"}, "46": {"stimulus": 4, "trial": 46, "rt": 810, "response": "Beta"}, "47": {"stimulus": 53, "trial": 47, "rt": 666, "response": "Alpha"}, "44": {"stimulus": 59, "trial": 44, "rt": 546, "response": "Alpha"}, "45": {"stimulus": 38, "trial": 45, "rt": 570, "response": "Alpha"}, "28": {"stimulus": 15, "trial": 28, "rt": 923, "response": "Alpha"}, "29": {"stimulus": 35, "trial": 29, "rt": 523, "response": "Alpha"}, "40": {"stimulus": 24, "trial": 40, "rt": 569, "response": "Alpha"}, "41": {"stimulus": 73, "trial": 41, "rt": 2547, "response": "Alpha"}, "1": {"stimulus": 72, "trial": 1, "rt": 3011, "response": "Alpha"}, "0": {"stimulus": 3, "trial": 0, "rt": 2482, "response": "Beta"}, "3": {"stimulus": 25, "trial": 3, "rt": 1879, "response": "Alpha"}, "2": {"stimulus": 60, "trial": 2, "rt": 1891, "response": "Alpha"}, "5": {"stimulus": 7, "trial": 5, "rt": 707, "response": "Beta"}, "4": {"stimulus": 6, "trial": 4, "rt": 1533, "response": "Beta"}, "7": {"stimulus": 52, "trial": 7, "rt": 888, "response": "Alpha"}, "6": {"stimulus": 14, "trial": 6, "rt": 2621, "response": "Alpha"}, "9": {"stimulus": 28, "trial": 9, "rt": 821, "response": "Alpha"}, "8": {"stimulus": 5, "trial": 8, "rt": 707, "response": "Beta"}, "78": {"stimulus": 46, "trial": 78, "rt": 516, "response": "Alpha"}, "51": {"stimulus": 70, "trial": 51, "rt": 492, "response": "Alpha"}, "39": {"stimulus": 64, "trial": 39, "rt": 549, "response": "Alpha"}, "65": {"stimulus": 9, "trial": 65, "rt": 746, "response": "Alpha"}, "76": {"stimulus": 12, "trial": 76, "rt": 893, "response": "Alpha"}, "75": {"stimulus": 22, "trial": 75, "rt": 586, "response": "Alpha"}, "38": {"stimulus": 34, "trial": 38, "rt": 683, "response": "Alpha"}, "73": {"stimulus": 47, "trial": 73, "rt": 443, "response": "Alpha"}, "72": {"stimulus": 41, "trial": 72, "rt": 539, "response": "Alpha"}, "71": {"stimulus": 65, "trial": 71, "rt": 521, "response": "Alpha"}, "70": {"stimulus": 78, "trial": 70, "rt": 482, "response": "Alpha"}, "59": {"stimulus": 32, "trial": 59, "rt": 1116, "response": "Alpha"}, "79": {"stimulus": 20, "trial": 79, "rt": 688, "response": "Alpha"}, "58": {"stimulus": 0, "trial": 58, "rt": 882, "response": "Beta"}, "11": {"stimulus": 23, "trial": 11, "rt": 740, "response": "Alpha"}, "10": {"stimulus": 58, "trial": 10, "rt": 658, "response": "Alpha"}, "13": {"stimulus": 80, "trial": 13, "rt": 842, "response": "Alpha"}, "12": {"stimulus": 11, "trial": 12, "rt": 1090, "response": "Alpha"}, "15": {"stimulus": 77, "trial": 15, "rt": 483, "response": "Alpha"}, "14": {"stimulus": 69, "trial": 14, "rt": 547, "response": "Alpha"}, "17": {"stimulus": 21, "trial": 17, "rt": 867, "response": "Alpha"}, "16": {"stimulus": 18, "trial": 16, "rt": 698, "response": "Alpha"}, "19": {"stimulus": 13, "trial": 19, "rt": 955, "response": "Alpha"}, "18": {"stimulus": 33, "trial": 18, "rt": 682, "response": "Alpha"}, "31": {"stimulus": 57, "trial": 31, "rt": 579, "response": "Alpha"}, "30": {"stimulus": 29, "trial": 30, "rt": 970, "response": "Alpha"}, "37": {"stimulus": 67, "trial": 37, "rt": 723, "response": "Alpha"}, "36": {"stimulus": 2, "trial": 36, "rt": 876, "response": "Beta"}, "35": {"stimulus": 50, "trial": 35, "rt": 512, "response": "Alpha"}, "34": {"stimulus": 19, "trial": 34, "rt": 557, "response": "Alpha"}, "33": {"stimulus": 36, "trial": 33, "rt": 696, "response": "Alpha"}, "55": {"stimulus": 40, "trial": 55, "rt": 523, "response": "Alpha"}, "74": {"stimulus": 48, "trial": 74, "rt": 514, "response": "Alpha"}, "32": {"stimulus": 63, "trial": 32, "rt": 1394, "response": "Alpha"}, "57": {"stimulus": 17, "trial": 57, "rt": 867, "response": "Alpha"}, "50": {"stimulus": 31, "trial": 50, "rt": 515, "response": "Alpha"}}}