{"generation": {"1": {"stimulus": 72, "trial": 1, "rt": 12511}, "0": {"stimulus": 0, "trial": 0, "rt": 17865}, "3": {"stimulus": 1, "trial": 3, "rt": 8009}, "2": {"stimulus": 54, "trial": 2, "rt": 11233}}, "info": {"finish": 1482174653853, "participant": 45, "exposed": true, "lab": false, "start": 1482174417286, "counterbalance": 4, "condition": "Bottom", "browser": {"platform": "Win32", "userAgent": "Mozilla/5.0 (Windows NT 10.0; WOW64) AppleWebKit/537.36 (KHTML, like Gecko) Chrome/55.0.2883.87 Safari/537.36"}}, "experiment": {"Paradigm": "TACL", "Stimuli": "Size-Color Squares", "Experiment": "Generating-Categories"}, "observation": {"11": {"stimulus": 32, "trial": 11, "rt": 1042}, "10": {"stimulus": 30, "trial": 10, "rt": 995}, "1": {"stimulus": 12, "trial": 1, "rt": 2762}, "0": {"stimulus": 14, "trial": 0, "rt": 2854}, "3": {"stimulus": 30, "trial": 3, "rt": 1276}, "2": {"stimulus": 32, "trial": 2, "rt": 2346}, "5": {"stimulus": 30, "trial": 5, "rt": 1178}, "4": {"stimulus": 32, "trial": 4, "rt": 1555}, "7": {"stimulus": 14, "trial": 7, "rt": 1217}, "6": {"stimulus": 12, "trial": 6, "rt": 1041}, "9": {"stimulus": 12, "trial": 9, "rt": 764}, "8": {"stimulus": 14, "trial": 8, "rt": 1009}}, "generalization": {"56": {"stimulus": 39, "trial": 56, "rt": 2755, "response": "Alpha"}, "77": {"stimulus": 24, "trial": 77, "rt": 1186, "response": "Alpha"}, "54": {"stimulus": 72, "trial": 54, "rt": 1194, "response": "Beta"}, "42": {"stimulus": 46, "trial": 42, "rt": 803, "response": "Beta"}, "48": {"stimulus": 6, "trial": 48, "rt": 1019, "response": "Alpha"}, "43": {"stimulus": 49, "trial": 43, "rt": 899, "response": "Alpha"}, "60": {"stimulus": 13, "trial": 60, "rt": 682, "response": "Alpha"}, "61": {"stimulus": 15, "trial": 61, "rt": 684, "response": "Alpha"}, "62": {"stimulus": 68, "trial": 62, "rt": 683, "response": "Alpha"}, "63": {"stimulus": 26, "trial": 63, "rt": 1170, "response": "Alpha"}, "64": {"stimulus": 42, "trial": 64, "rt": 987, "response": "Alpha"}, "49": {"stimulus": 16, "trial": 49, "rt": 563, "response": "Alpha"}, "66": {"stimulus": 61, "trial": 66, "rt": 460, "response": "Alpha"}, "67": {"stimulus": 30, "trial": 67, "rt": 1298, "response": "Alpha"}, "68": {"stimulus": 19, "trial": 68, "rt": 644, "response": "Beta"}, "69": {"stimulus": 38, "trial": 69, "rt": 650, "response": "Beta"}, "80": {"stimulus": 20, "trial": 80, "rt": 1394, "response": "Beta"}, "52": {"stimulus": 45, "trial": 52, "rt": 714, "response": "Beta"}, "53": {"stimulus": 77, "trial": 53, "rt": 1140, "response": "Alpha"}, "24": {"stimulus": 54, "trial": 24, "rt": 921, "response": "Beta"}, "25": {"stimulus": 79, "trial": 25, "rt": 1083, "response": "Alpha"}, "26": {"stimulus": 78, "trial": 26, "rt": 3162, "response": "Beta"}, "27": {"stimulus": 23, "trial": 27, "rt": 3141, "response": "Alpha"}, "20": {"stimulus": 5, "trial": 20, "rt": 1003, "response": "Alpha"}, "21": {"stimulus": 66, "trial": 21, "rt": 1691, "response": "Alpha"}, "22": {"stimulus": 58, "trial": 22, "rt": 780, "response": "Alpha"}, "23": {"stimulus": 55, "trial": 23, "rt": 994, "response": "Beta"}, "46": {"stimulus": 4, "trial": 46, "rt": 771, "response": "Alpha"}, "47": {"stimulus": 63, "trial": 47, "rt": 939, "response": "Beta"}, "44": {"stimulus": 75, "trial": 44, "rt": 1723, "response": "Alpha"}, "45": {"stimulus": 21, "trial": 45, "rt": 778, "response": "Beta"}, "28": {"stimulus": 34, "trial": 28, "rt": 1057, "response": "Beta"}, "29": {"stimulus": 10, "trial": 29, "rt": 2794, "response": "Beta"}, "40": {"stimulus": 60, "trial": 40, "rt": 642, "response": "Alpha"}, "41": {"stimulus": 31, "trial": 41, "rt": 555, "response": "Alpha"}, "1": {"stimulus": 25, "trial": 1, "rt": 1691, "response": "Alpha"}, "0": {"stimulus": 40, "trial": 0, "rt": 4433, "response": "Alpha"}, "3": {"stimulus": 17, "trial": 3, "rt": 1539, "response": "Beta"}, "2": {"stimulus": 56, "trial": 2, "rt": 3066, "response": "Alpha"}, "5": {"stimulus": 51, "trial": 5, "rt": 1299, "response": "Beta"}, "4": {"stimulus": 74, "trial": 4, "rt": 1115, "response": "Alpha"}, "7": {"stimulus": 76, "trial": 7, "rt": 698, "response": "Alpha"}, "6": {"stimulus": 8, "trial": 6, "rt": 1051, "response": "Beta"}, "9": {"stimulus": 11, "trial": 9, "rt": 1224, "response": "Beta"}, "8": {"stimulus": 3, "trial": 8, "rt": 1036, "response": "Alpha"}, "78": {"stimulus": 59, "trial": 78, "rt": 939, "response": "Alpha"}, "51": {"stimulus": 7, "trial": 51, "rt": 778, "response": "Alpha"}, "39": {"stimulus": 69, "trial": 39, "rt": 1530, "response": "Alpha"}, "65": {"stimulus": 33, "trial": 65, "rt": 587, "response": "Alpha"}, "76": {"stimulus": 67, "trial": 76, "rt": 1075, "response": "Alpha"}, "75": {"stimulus": 37, "trial": 75, "rt": 507, "response": "Beta"}, "38": {"stimulus": 44, "trial": 38, "rt": 1155, "response": "Beta"}, "73": {"stimulus": 9, "trial": 73, "rt": 513, "response": "Beta"}, "72": {"stimulus": 57, "trial": 72, "rt": 1066, "response": "Alpha"}, "71": {"stimulus": 0, "trial": 71, "rt": 827, "response": "Beta"}, "70": {"stimulus": 41, "trial": 70, "rt": 1418, "response": "Alpha"}, "59": {"stimulus": 48, "trial": 59, "rt": 1092, "response": "Alpha"}, "79": {"stimulus": 36, "trial": 79, "rt": 788, "response": "Beta"}, "58": {"stimulus": 52, "trial": 58, "rt": 2442, "response": "Alpha"}, "11": {"stimulus": 71, "trial": 11, "rt": 1450, "response": "Beta"}, "10": {"stimulus": 2, "trial": 10, "rt": 514, "response": "Beta"}, "13": {"stimulus": 12, "trial": 13, "rt": 1002, "response": "Alpha"}, "12": {"stimulus": 50, "trial": 12, "rt": 731, "response": "Alpha"}, "15": {"stimulus": 29, "trial": 15, "rt": 1489, "response": "Beta"}, "14": {"stimulus": 35, "trial": 14, "rt": 1794, "response": "Beta"}, "17": {"stimulus": 14, "trial": 17, "rt": 1403, "response": "Beta"}, "16": {"stimulus": 62, "trial": 16, "rt": 843, "response": "Alpha"}, "19": {"stimulus": 22, "trial": 19, "rt": 1043, "response": "Alpha"}, "18": {"stimulus": 27, "trial": 18, "rt": 987, "response": "Beta"}, "31": {"stimulus": 73, "trial": 31, "rt": 1027, "response": "Beta"}, "30": {"stimulus": 47, "trial": 30, "rt": 1227, "response": "Beta"}, "37": {"stimulus": 64, "trial": 37, "rt": 1540, "response": "Beta"}, "36": {"stimulus": 80, "trial": 36, "rt": 1315, "response": "Beta"}, "35": {"stimulus": 18, "trial": 35, "rt": 1010, "response": "Beta"}, "34": {"stimulus": 53, "trial": 34, "rt": 2802, "response": "Beta"}, "33": {"stimulus": 70, "trial": 33, "rt": 755, "response": "Alpha"}, "55": {"stimulus": 65, "trial": 55, "rt": 954, "response": "Alpha"}, "74": {"stimulus": 28, "trial": 74, "rt": 699, "response": "Beta"}, "32": {"stimulus": 43, "trial": 32, "rt": 1099, "response": "Alpha"}, "57": {"stimulus": 1, "trial": 57, "rt": 539, "response": "Beta"}, "50": {"stimulus": 32, "trial": 50, "rt": 708, "response": "Alpha"}}}