{"generation": {"1": {"stimulus": 0, "trial": 1, "rt": 3934}, "0": {"stimulus": 80, "trial": 0, "rt": 6714}, "3": {"stimulus": 8, "trial": 3, "rt": 2155}, "2": {"stimulus": 72, "trial": 2, "rt": 3212}}, "info": {"finish": 1482174637262, "participant": 46, "exposed": true, "lab": false, "start": 1482174420385, "counterbalance": 0, "condition": "Bottom", "browser": {"platform": "Win32", "userAgent": "Mozilla/5.0 (Windows NT 10.0; WOW64; rv:50.0) Gecko/20100101 Firefox/50.0"}}, "experiment": {"Paradigm": "TACL", "Stimuli": "Size-Color Squares", "Experiment": "Generating-Categories"}, "observation": {"11": {"stimulus": 30, "trial": 11, "rt": 1867}, "10": {"stimulus": 12, "trial": 10, "rt": 21147}, "1": {"stimulus": 12, "trial": 1, "rt": 1419}, "0": {"stimulus": 30, "trial": 0, "rt": 1927}, "3": {"stimulus": 14, "trial": 3, "rt": 990}, "2": {"stimulus": 32, "trial": 2, "rt": 1116}, "5": {"stimulus": 14, "trial": 5, "rt": 646}, "4": {"stimulus": 12, "trial": 4, "rt": 972}, "7": {"stimulus": 30, "trial": 7, "rt": 1060}, "6": {"stimulus": 32, "trial": 6, "rt": 716}, "9": {"stimulus": 14, "trial": 9, "rt": 839}, "8": {"stimulus": 32, "trial": 8, "rt": 990}}, "generalization": {"56": {"stimulus": 41, "trial": 56, "rt": 916, "response": "Beta"}, "77": {"stimulus": 33, "trial": 77, "rt": 835, "response": "Beta"}, "54": {"stimulus": 9, "trial": 54, "rt": 851, "response": "Alpha"}, "42": {"stimulus": 80, "trial": 42, "rt": 942, "response": "Beta"}, "48": {"stimulus": 2, "trial": 48, "rt": 1001, "response": "Alpha"}, "43": {"stimulus": 7, "trial": 43, "rt": 755, "response": "Beta"}, "60": {"stimulus": 10, "trial": 60, "rt": 1056, "response": "Alpha"}, "61": {"stimulus": 5, "trial": 61, "rt": 967, "response": "Beta"}, "62": {"stimulus": 28, "trial": 62, "rt": 1132, "response": "Alpha"}, "63": {"stimulus": 22, "trial": 63, "rt": 1243, "response": "Beta"}, "64": {"stimulus": 18, "trial": 64, "rt": 1038, "response": "Alpha"}, "49": {"stimulus": 62, "trial": 49, "rt": 990, "response": "Beta"}, "66": {"stimulus": 44, "trial": 66, "rt": 523, "response": "Alpha"}, "67": {"stimulus": 17, "trial": 67, "rt": 636, "response": "Beta"}, "68": {"stimulus": 38, "trial": 68, "rt": 980, "response": "Alpha"}, "69": {"stimulus": 74, "trial": 69, "rt": 980, "response": "Beta"}, "80": {"stimulus": 6, "trial": 80, "rt": 1243, "response": "Beta"}, "52": {"stimulus": 61, "trial": 52, "rt": 1457, "response": "Beta"}, "53": {"stimulus": 51, "trial": 53, "rt": 771, "response": "Beta"}, "24": {"stimulus": 55, "trial": 24, "rt": 1716, "response": "Alpha"}, "25": {"stimulus": 1, "trial": 25, "rt": 1749, "response": "Alpha"}, "26": {"stimulus": 29, "trial": 26, "rt": 2284, "response": "Beta"}, "27": {"stimulus": 65, "trial": 27, "rt": 1449, "response": "Alpha"}, "20": {"stimulus": 16, "trial": 20, "rt": 1339, "response": "Beta"}, "21": {"stimulus": 72, "trial": 21, "rt": 2246, "response": "Alpha"}, "22": {"stimulus": 0, "trial": 22, "rt": 2092, "response": "Alpha"}, "23": {"stimulus": 68, "trial": 23, "rt": 1251, "response": "Beta"}, "46": {"stimulus": 31, "trial": 46, "rt": 1790, "response": "Alpha"}, "47": {"stimulus": 71, "trial": 47, "rt": 653, "response": "Beta"}, "44": {"stimulus": 67, "trial": 44, "rt": 931, "response": "Beta"}, "45": {"stimulus": 15, "trial": 45, "rt": 1349, "response": "Beta"}, "28": {"stimulus": 43, "trial": 28, "rt": 1030, "response": "Beta"}, "29": {"stimulus": 45, "trial": 29, "rt": 987, "response": "Alpha"}, "40": {"stimulus": 52, "trial": 40, "rt": 2076, "response": "Beta"}, "41": {"stimulus": 39, "trial": 41, "rt": 1115, "response": "Alpha"}, "1": {"stimulus": 4, "trial": 1, "rt": 1150, "response": "Alpha"}, "0": {"stimulus": 34, "trial": 0, "rt": 1721, "response": "Beta"}, "3": {"stimulus": 78, "trial": 3, "rt": 1051, "response": "Beta"}, "2": {"stimulus": 60, "trial": 2, "rt": 932, "response": "Beta"}, "5": {"stimulus": 66, "trial": 5, "rt": 1133, "response": "Alpha"}, "4": {"stimulus": 24, "trial": 4, "rt": 1043, "response": "Beta"}, "7": {"stimulus": 50, "trial": 7, "rt": 1050, "response": "Beta"}, "6": {"stimulus": 12, "trial": 6, "rt": 884, "response": "Alpha"}, "9": {"stimulus": 56, "trial": 9, "rt": 1042, "response": "Alpha"}, "8": {"stimulus": 79, "trial": 8, "rt": 808, "response": "Beta"}, "78": {"stimulus": 46, "trial": 78, "rt": 2109, "response": "Alpha"}, "51": {"stimulus": 40, "trial": 51, "rt": 963, "response": "Beta"}, "39": {"stimulus": 35, "trial": 39, "rt": 1203, "response": "Beta"}, "65": {"stimulus": 32, "trial": 65, "rt": 1147, "response": "Beta"}, "76": {"stimulus": 64, "trial": 76, "rt": 948, "response": "Alpha"}, "75": {"stimulus": 70, "trial": 75, "rt": 637, "response": "Beta"}, "38": {"stimulus": 47, "trial": 38, "rt": 1237, "response": "Alpha"}, "73": {"stimulus": 49, "trial": 73, "rt": 1180, "response": "Beta"}, "72": {"stimulus": 37, "trial": 72, "rt": 963, "response": "Alpha"}, "71": {"stimulus": 57, "trial": 71, "rt": 843, "response": "Beta"}, "70": {"stimulus": 11, "trial": 70, "rt": 1069, "response": "Alpha"}, "59": {"stimulus": 36, "trial": 59, "rt": 1564, "response": "Alpha"}, "79": {"stimulus": 75, "trial": 79, "rt": 888, "response": "Beta"}, "58": {"stimulus": 26, "trial": 58, "rt": 981, "response": "Beta"}, "11": {"stimulus": 13, "trial": 11, "rt": 1237, "response": "Alpha"}, "10": {"stimulus": 69, "trial": 10, "rt": 803, "response": "Beta"}, "13": {"stimulus": 54, "trial": 13, "rt": 629, "response": "Alpha"}, "12": {"stimulus": 63, "trial": 12, "rt": 1371, "response": "Alpha"}, "15": {"stimulus": 59, "trial": 15, "rt": 1251, "response": "Beta"}, "14": {"stimulus": 48, "trial": 14, "rt": 998, "response": "Beta"}, "17": {"stimulus": 73, "trial": 17, "rt": 951, "response": "Alpha"}, "16": {"stimulus": 14, "trial": 16, "rt": 931, "response": "Beta"}, "19": {"stimulus": 77, "trial": 19, "rt": 990, "response": "Beta"}, "18": {"stimulus": 27, "trial": 18, "rt": 707, "response": "Alpha"}, "31": {"stimulus": 58, "trial": 31, "rt": 997, "response": "Beta"}, "30": {"stimulus": 19, "trial": 30, "rt": 1477, "response": "Alpha"}, "37": {"stimulus": 25, "trial": 37, "rt": 859, "response": "Beta"}, "36": {"stimulus": 53, "trial": 36, "rt": 1059, "response": "Beta"}, "35": {"stimulus": 3, "trial": 35, "rt": 1378, "response": "Beta"}, "34": {"stimulus": 30, "trial": 34, "rt": 1364, "response": "Beta"}, "33": {"stimulus": 20, "trial": 33, "rt": 1123, "response": "Alpha"}, "55": {"stimulus": 42, "trial": 55, "rt": 1009, "response": "Beta"}, "74": {"stimulus": 76, "trial": 74, "rt": 1027, "response": "Beta"}, "32": {"stimulus": 23, "trial": 32, "rt": 715, "response": "Beta"}, "57": {"stimulus": 8, "trial": 57, "rt": 1396, "response": "Beta"}, "50": {"stimulus": 21, "trial": 50, "rt": 1028, "response": "Beta"}}}