{"generation": {"1": {"stimulus": 72, "trial": 1, "rt": 4594}, "0": {"stimulus": 80, "trial": 0, "rt": 10355}, "3": {"stimulus": 78, "trial": 3, "rt": 4610}, "2": {"stimulus": 79, "trial": 2, "rt": 9903}}, "info": {"finish": 1482174678878, "participant": 47, "exposed": true, "lab": false, "start": 1482174421729, "counterbalance": 6, "condition": "Bottom", "browser": {"platform": "Win32", "userAgent": "Mozilla/5.0 (Windows NT 10.0; WOW64) AppleWebKit/537.36 (KHTML, like Gecko) Chrome/55.0.2883.87 Safari/537.36"}}, "experiment": {"Paradigm": "TACL", "Stimuli": "Size-Color Squares", "Experiment": "Generating-Categories"}, "observation": {"11": {"stimulus": 30, "trial": 11, "rt": 839}, "10": {"stimulus": 32, "trial": 10, "rt": 840}, "1": {"stimulus": 12, "trial": 1, "rt": 1464}, "0": {"stimulus": 30, "trial": 0, "rt": 1654}, "3": {"stimulus": 32, "trial": 3, "rt": 767}, "2": {"stimulus": 14, "trial": 2, "rt": 899}, "5": {"stimulus": 12, "trial": 5, "rt": 739}, "4": {"stimulus": 30, "trial": 4, "rt": 721}, "7": {"stimulus": 14, "trial": 7, "rt": 731}, "6": {"stimulus": 32, "trial": 6, "rt": 655}, "9": {"stimulus": 12, "trial": 9, "rt": 620}, "8": {"stimulus": 14, "trial": 8, "rt": 832}}, "generalization": {"56": {"stimulus": 65, "trial": 56, "rt": 708, "response": "Beta"}, "77": {"stimulus": 73, "trial": 77, "rt": 655, "response": "Beta"}, "54": {"stimulus": 51, "trial": 54, "rt": 1426, "response": "Beta"}, "42": {"stimulus": 45, "trial": 42, "rt": 3699, "response": "Beta"}, "48": {"stimulus": 2, "trial": 48, "rt": 219, "response": "Beta"}, "43": {"stimulus": 5, "trial": 43, "rt": 3794, "response": "Alpha"}, "60": {"stimulus": 3, "trial": 60, "rt": 563, "response": "Alpha"}, "61": {"stimulus": 67, "trial": 61, "rt": 804, "response": "Beta"}, "62": {"stimulus": 18, "trial": 62, "rt": 1190, "response": "Alpha"}, "63": {"stimulus": 75, "trial": 63, "rt": 749, "response": "Beta"}, "64": {"stimulus": 60, "trial": 64, "rt": 702, "response": "Beta"}, "49": {"stimulus": 10, "trial": 49, "rt": 203, "response": "Alpha"}, "66": {"stimulus": 58, "trial": 66, "rt": 876, "response": "Beta"}, "67": {"stimulus": 47, "trial": 67, "rt": 1391, "response": "Beta"}, "68": {"stimulus": 64, "trial": 68, "rt": 7255, "response": "Beta"}, "69": {"stimulus": 1, "trial": 69, "rt": 643, "response": "Alpha"}, "80": {"stimulus": 29, "trial": 80, "rt": 691, "response": "Beta"}, "52": {"stimulus": 16, "trial": 52, "rt": 508, "response": "Alpha"}, "53": {"stimulus": 39, "trial": 53, "rt": 1110, "response": "Beta"}, "24": {"stimulus": 74, "trial": 24, "rt": 867, "response": "Beta"}, "25": {"stimulus": 78, "trial": 25, "rt": 895, "response": "Beta"}, "26": {"stimulus": 0, "trial": 26, "rt": 707, "response": "Alpha"}, "27": {"stimulus": 17, "trial": 27, "rt": 484, "response": "Alpha"}, "20": {"stimulus": 32, "trial": 20, "rt": 719, "response": "Alpha"}, "21": {"stimulus": 28, "trial": 21, "rt": 1966, "response": "Alpha"}, "22": {"stimulus": 21, "trial": 22, "rt": 1091, "response": "Alpha"}, "23": {"stimulus": 9, "trial": 23, "rt": 519, "response": "Alpha"}, "46": {"stimulus": 24, "trial": 46, "rt": 319, "response": "Beta"}, "47": {"stimulus": 6, "trial": 47, "rt": 267, "response": "Alpha"}, "44": {"stimulus": 48, "trial": 44, "rt": 427, "response": "Beta"}, "45": {"stimulus": 40, "trial": 45, "rt": 747, "response": "Alpha"}, "28": {"stimulus": 71, "trial": 28, "rt": 1094, "response": "Beta"}, "29": {"stimulus": 25, "trial": 29, "rt": 2040, "response": "Beta"}, "40": {"stimulus": 61, "trial": 40, "rt": 2251, "response": "Beta"}, "41": {"stimulus": 35, "trial": 41, "rt": 6027, "response": "Alpha"}, "1": {"stimulus": 53, "trial": 1, "rt": 623, "response": "Alpha"}, "0": {"stimulus": 36, "trial": 0, "rt": 2319, "response": "Alpha"}, "3": {"stimulus": 56, "trial": 3, "rt": 823, "response": "Beta"}, "2": {"stimulus": 34, "trial": 2, "rt": 463, "response": "Alpha"}, "5": {"stimulus": 70, "trial": 5, "rt": 1043, "response": "Alpha"}, "4": {"stimulus": 43, "trial": 4, "rt": 399, "response": "Alpha"}, "7": {"stimulus": 31, "trial": 7, "rt": 691, "response": "Alpha"}, "6": {"stimulus": 68, "trial": 6, "rt": 583, "response": "Alpha"}, "9": {"stimulus": 33, "trial": 9, "rt": 483, "response": "Alpha"}, "8": {"stimulus": 37, "trial": 8, "rt": 479, "response": "Alpha"}, "78": {"stimulus": 66, "trial": 78, "rt": 708, "response": "Beta"}, "51": {"stimulus": 59, "trial": 51, "rt": 219, "response": "Beta"}, "39": {"stimulus": 15, "trial": 39, "rt": 1275, "response": "Alpha"}, "65": {"stimulus": 12, "trial": 65, "rt": 6775, "response": "Beta"}, "76": {"stimulus": 26, "trial": 76, "rt": 771, "response": "Alpha"}, "75": {"stimulus": 4, "trial": 75, "rt": 443, "response": "Alpha"}, "38": {"stimulus": 54, "trial": 38, "rt": 775, "response": "Beta"}, "73": {"stimulus": 41, "trial": 73, "rt": 859, "response": "Beta"}, "72": {"stimulus": 62, "trial": 72, "rt": 1327, "response": "Beta"}, "71": {"stimulus": 76, "trial": 71, "rt": 735, "response": "Beta"}, "70": {"stimulus": 44, "trial": 70, "rt": 1559, "response": "Beta"}, "59": {"stimulus": 13, "trial": 59, "rt": 560, "response": "Alpha"}, "79": {"stimulus": 80, "trial": 79, "rt": 647, "response": "Beta"}, "58": {"stimulus": 55, "trial": 58, "rt": 17190, "response": "Beta"}, "11": {"stimulus": 69, "trial": 11, "rt": 826, "response": "Beta"}, "10": {"stimulus": 11, "trial": 10, "rt": 992, "response": "Alpha"}, "13": {"stimulus": 8, "trial": 13, "rt": 651, "response": "Alpha"}, "12": {"stimulus": 57, "trial": 12, "rt": 919, "response": "Beta"}, "15": {"stimulus": 20, "trial": 15, "rt": 491, "response": "Alpha"}, "14": {"stimulus": 19, "trial": 14, "rt": 511, "response": "Alpha"}, "17": {"stimulus": 30, "trial": 17, "rt": 1139, "response": "Beta"}, "16": {"stimulus": 49, "trial": 16, "rt": 935, "response": "Beta"}, "19": {"stimulus": 72, "trial": 19, "rt": 767, "response": "Beta"}, "18": {"stimulus": 27, "trial": 18, "rt": 635, "response": "Beta"}, "31": {"stimulus": 22, "trial": 31, "rt": 548, "response": "Alpha"}, "30": {"stimulus": 52, "trial": 30, "rt": 887, "response": "Beta"}, "37": {"stimulus": 23, "trial": 37, "rt": 811, "response": "Beta"}, "36": {"stimulus": 63, "trial": 36, "rt": 4503, "response": "Alpha"}, "35": {"stimulus": 42, "trial": 35, "rt": 1387, "response": "Alpha"}, "34": {"stimulus": 79, "trial": 34, "rt": 1007, "response": "Beta"}, "33": {"stimulus": 14, "trial": 33, "rt": 1211, "response": "Alpha"}, "55": {"stimulus": 50, "trial": 55, "rt": 726, "response": "Beta"}, "74": {"stimulus": 38, "trial": 74, "rt": 1159, "response": "Beta"}, "32": {"stimulus": 77, "trial": 32, "rt": 687, "response": "Beta"}, "57": {"stimulus": 7, "trial": 57, "rt": 958, "response": "Alpha"}, "50": {"stimulus": 46, "trial": 50, "rt": 271, "response": "Alpha"}}}