{"generation": {"1": {"stimulus": 37, "trial": 1, "rt": 9335}, "0": {"stimulus": 72, "trial": 0, "rt": 27343}, "3": {"stimulus": 38, "trial": 3, "rt": 9256}, "2": {"stimulus": 28, "trial": 2, "rt": 8626}}, "info": {"finish": 1482174758966, "participant": 48, "exposed": true, "lab": false, "start": 1482174426293, "counterbalance": 4, "condition": "Bottom", "browser": {"platform": "Win32", "userAgent": "Mozilla/5.0 (Windows NT 6.1; Win64; x64) AppleWebKit/537.36 (KHTML, like Gecko) Chrome/55.0.2883.87 Safari/537.36"}}, "experiment": {"Paradigm": "TACL", "Stimuli": "Size-Color Squares", "Experiment": "Generating-Categories"}, "observation": {"11": {"stimulus": 30, "trial": 11, "rt": 1291}, "10": {"stimulus": 12, "trial": 10, "rt": 1218}, "1": {"stimulus": 12, "trial": 1, "rt": 1709}, "0": {"stimulus": 32, "trial": 0, "rt": 4343}, "3": {"stimulus": 30, "trial": 3, "rt": 1811}, "2": {"stimulus": 14, "trial": 2, "rt": 1482}, "5": {"stimulus": 12, "trial": 5, "rt": 2441}, "4": {"stimulus": 14, "trial": 4, "rt": 1470}, "7": {"stimulus": 32, "trial": 7, "rt": 1626}, "6": {"stimulus": 30, "trial": 6, "rt": 1900}, "9": {"stimulus": 14, "trial": 9, "rt": 1348}, "8": {"stimulus": 32, "trial": 8, "rt": 1787}}, "generalization": {"56": {"stimulus": 71, "trial": 56, "rt": 637, "response": "Alpha"}, "77": {"stimulus": 63, "trial": 77, "rt": 1115, "response": "Beta"}, "54": {"stimulus": 30, "trial": 54, "rt": 619, "response": "Alpha"}, "42": {"stimulus": 51, "trial": 42, "rt": 939, "response": "Alpha"}, "48": {"stimulus": 10, "trial": 48, "rt": 996, "response": "Beta"}, "43": {"stimulus": 8, "trial": 43, "rt": 1315, "response": "Alpha"}, "60": {"stimulus": 5, "trial": 60, "rt": 651, "response": "Alpha"}, "61": {"stimulus": 77, "trial": 61, "rt": 539, "response": "Alpha"}, "62": {"stimulus": 22, "trial": 62, "rt": 563, "response": "Alpha"}, "63": {"stimulus": 34, "trial": 63, "rt": 730, "response": "Alpha"}, "64": {"stimulus": 58, "trial": 64, "rt": 643, "response": "Alpha"}, "49": {"stimulus": 46, "trial": 49, "rt": 1194, "response": "Beta"}, "66": {"stimulus": 21, "trial": 66, "rt": 539, "response": "Alpha"}, "67": {"stimulus": 23, "trial": 67, "rt": 531, "response": "Alpha"}, "68": {"stimulus": 33, "trial": 68, "rt": 510, "response": "Alpha"}, "69": {"stimulus": 28, "trial": 69, "rt": 1196, "response": "Beta"}, "80": {"stimulus": 20, "trial": 80, "rt": 1587, "response": "Alpha"}, "52": {"stimulus": 12, "trial": 52, "rt": 7674, "response": "Alpha"}, "53": {"stimulus": 6, "trial": 53, "rt": 755, "response": "Alpha"}, "24": {"stimulus": 48, "trial": 24, "rt": 1511, "response": "Alpha"}, "25": {"stimulus": 60, "trial": 25, "rt": 587, "response": "Alpha"}, "26": {"stimulus": 43, "trial": 26, "rt": 505, "response": "Alpha"}, "27": {"stimulus": 65, "trial": 27, "rt": 1035, "response": "Alpha"}, "20": {"stimulus": 45, "trial": 20, "rt": 940, "response": "Beta"}, "21": {"stimulus": 3, "trial": 21, "rt": 963, "response": "Alpha"}, "22": {"stimulus": 70, "trial": 22, "rt": 707, "response": "Alpha"}, "23": {"stimulus": 62, "trial": 23, "rt": 702, "response": "Alpha"}, "46": {"stimulus": 7, "trial": 46, "rt": 634, "response": "Alpha"}, "47": {"stimulus": 36, "trial": 47, "rt": 891, "response": "Beta"}, "44": {"stimulus": 47, "trial": 44, "rt": 1817, "response": "Alpha"}, "45": {"stimulus": 11, "trial": 45, "rt": 3445, "response": "Alpha"}, "28": {"stimulus": 53, "trial": 28, "rt": 644, "response": "Alpha"}, "29": {"stimulus": 72, "trial": 29, "rt": 1010, "response": "Beta"}, "40": {"stimulus": 0, "trial": 40, "rt": 899, "response": "Beta"}, "41": {"stimulus": 37, "trial": 41, "rt": 619, "response": "Beta"}, "1": {"stimulus": 31, "trial": 1, "rt": 906, "response": "Alpha"}, "0": {"stimulus": 39, "trial": 0, "rt": 5103, "response": "Alpha"}, "3": {"stimulus": 27, "trial": 3, "rt": 1106, "response": "Beta"}, "2": {"stimulus": 17, "trial": 2, "rt": 1035, "response": "Alpha"}, "5": {"stimulus": 52, "trial": 5, "rt": 851, "response": "Alpha"}, "4": {"stimulus": 73, "trial": 4, "rt": 2146, "response": "Beta"}, "7": {"stimulus": 38, "trial": 7, "rt": 971, "response": "Beta"}, "6": {"stimulus": 66, "trial": 6, "rt": 842, "response": "Alpha"}, "9": {"stimulus": 35, "trial": 9, "rt": 818, "response": "Alpha"}, "8": {"stimulus": 2, "trial": 8, "rt": 1139, "response": "Beta"}, "78": {"stimulus": 67, "trial": 78, "rt": 891, "response": "Alpha"}, "51": {"stimulus": 69, "trial": 51, "rt": 779, "response": "Alpha"}, "39": {"stimulus": 32, "trial": 39, "rt": 595, "response": "Alpha"}, "65": {"stimulus": 68, "trial": 65, "rt": 546, "response": "Alpha"}, "76": {"stimulus": 49, "trial": 76, "rt": 571, "response": "Alpha"}, "75": {"stimulus": 13, "trial": 75, "rt": 1145, "response": "Alpha"}, "38": {"stimulus": 59, "trial": 38, "rt": 539, "response": "Alpha"}, "73": {"stimulus": 25, "trial": 73, "rt": 876, "response": "Alpha"}, "72": {"stimulus": 18, "trial": 72, "rt": 1064, "response": "Beta"}, "71": {"stimulus": 61, "trial": 71, "rt": 925, "response": "Alpha"}, "70": {"stimulus": 40, "trial": 70, "rt": 1188, "response": "Alpha"}, "59": {"stimulus": 79, "trial": 59, "rt": 667, "response": "Alpha"}, "79": {"stimulus": 50, "trial": 79, "rt": 1515, "response": "Alpha"}, "58": {"stimulus": 75, "trial": 58, "rt": 1299, "response": "Alpha"}, "11": {"stimulus": 29, "trial": 11, "rt": 1491, "response": "Alpha"}, "10": {"stimulus": 78, "trial": 10, "rt": 730, "response": "Alpha"}, "13": {"stimulus": 1, "trial": 13, "rt": 915, "response": "Beta"}, "12": {"stimulus": 42, "trial": 12, "rt": 802, "response": "Alpha"}, "15": {"stimulus": 24, "trial": 15, "rt": 1107, "response": "Alpha"}, "14": {"stimulus": 64, "trial": 14, "rt": 939, "response": "Beta"}, "17": {"stimulus": 16, "trial": 17, "rt": 811, "response": "Alpha"}, "16": {"stimulus": 57, "trial": 16, "rt": 978, "response": "Alpha"}, "19": {"stimulus": 15, "trial": 19, "rt": 834, "response": "Alpha"}, "18": {"stimulus": 41, "trial": 18, "rt": 723, "response": "Alpha"}, "31": {"stimulus": 76, "trial": 31, "rt": 1483, "response": "Alpha"}, "30": {"stimulus": 9, "trial": 30, "rt": 803, "response": "Beta"}, "37": {"stimulus": 14, "trial": 37, "rt": 803, "response": "Alpha"}, "36": {"stimulus": 55, "trial": 36, "rt": 1315, "response": "Beta"}, "35": {"stimulus": 19, "trial": 35, "rt": 962, "response": "Beta"}, "34": {"stimulus": 44, "trial": 34, "rt": 714, "response": "Alpha"}, "33": {"stimulus": 80, "trial": 33, "rt": 746, "response": "Alpha"}, "55": {"stimulus": 4, "trial": 55, "rt": 619, "response": "Alpha"}, "74": {"stimulus": 26, "trial": 74, "rt": 787, "response": "Alpha"}, "32": {"stimulus": 56, "trial": 32, "rt": 1250, "response": "Alpha"}, "57": {"stimulus": 54, "trial": 57, "rt": 1018, "response": "Beta"}, "50": {"stimulus": 74, "trial": 50, "rt": 1084, "response": "Alpha"}}}