{"generation": {"1": {"stimulus": 72, "trial": 1, "rt": 8802}, "0": {"stimulus": 80, "trial": 0, "rt": 8725}, "3": {"stimulus": 0, "trial": 3, "rt": 2566}, "2": {"stimulus": 8, "trial": 2, "rt": 5940}}, "info": {"participant": 50, "exposed": true, "lab": false, "start": 1482174433105, "counterbalance": 3, "condition": "Bottom", "browser": {"platform": "Win32", "userAgent": "Mozilla/5.0 (Windows NT 10.0; Win64; x64) AppleWebKit/537.36 (KHTML, like Gecko) Chrome/55.0.2883.87 Safari/537.36"}}, "experiment": {"Paradigm": "TACL", "Stimuli": "Size-Color Squares", "Experiment": "Generating-Categories"}, "observation": {"11": {"stimulus": 12, "trial": 11, "rt": 1006}, "10": {"stimulus": 30, "trial": 10, "rt": 1212}, "1": {"stimulus": 32, "trial": 1, "rt": 1203}, "0": {"stimulus": 14, "trial": 0, "rt": 3247}, "3": {"stimulus": 12, "trial": 3, "rt": 1012}, "2": {"stimulus": 30, "trial": 2, "rt": 1208}, "5": {"stimulus": 12, "trial": 5, "rt": 1437}, "4": {"stimulus": 14, "trial": 4, "rt": 1153}, "7": {"stimulus": 30, "trial": 7, "rt": 1110}, "6": {"stimulus": 32, "trial": 6, "rt": 1136}, "9": {"stimulus": 14, "trial": 9, "rt": 1816}, "8": {"stimulus": 32, "trial": 8, "rt": 1196}}, "generalization": {"56": {"stimulus": 36, "trial": 56, "rt": 593, "response": "Beta"}, "77": {"stimulus": 46, "trial": 77, "rt": 1145, "response": "Beta"}, "54": {"stimulus": 0, "trial": 54, "rt": 1257, "response": "Beta"}, "42": {"stimulus": 33, "trial": 42, "rt": 1395, "response": "Alpha"}, "48": {"stimulus": 52, "trial": 48, "rt": 1390, "response": "Beta"}, "43": {"stimulus": 71, "trial": 43, "rt": 2259, "response": "Beta"}, "60": {"stimulus": 58, "trial": 60, "rt": 483, "response": "Beta"}, "61": {"stimulus": 42, "trial": 61, "rt": 1090, "response": "Alpha"}, "62": {"stimulus": 8, "trial": 62, "rt": 850, "response": "Beta"}, "63": {"stimulus": 5, "trial": 63, "rt": 1213, "response": "Alpha"}, "64": {"stimulus": 77, "trial": 64, "rt": 1064, "response": "Beta"}, "49": {"stimulus": 37, "trial": 49, "rt": 1226, "response": "Beta"}, "66": {"stimulus": 11, "trial": 66, "rt": 910, "response": "Alpha"}, "67": {"stimulus": 61, "trial": 67, "rt": 824, "response": "Beta"}, "68": {"stimulus": 67, "trial": 68, "rt": 564, "response": "Beta"}, "69": {"stimulus": 49, "trial": 69, "rt": 1036, "response": "Alpha"}, "80": {"stimulus": 79, "trial": 80, "rt": 887, "response": "Beta"}, "52": {"stimulus": 29, "trial": 52, "rt": 1319, "response": "Alpha"}, "53": {"stimulus": 14, "trial": 53, "rt": 1340, "response": "Alpha"}, "24": {"stimulus": 63, "trial": 24, "rt": 710, "response": "Beta"}, "25": {"stimulus": 10, "trial": 25, "rt": 1782, "response": "Beta"}, "26": {"stimulus": 55, "trial": 26, "rt": 1191, "response": "Beta"}, "27": {"stimulus": 59, "trial": 27, "rt": 763, "response": "Alpha"}, "20": {"stimulus": 64, "trial": 20, "rt": 788, "response": "Beta"}, "21": {"stimulus": 40, "trial": 21, "rt": 1020, "response": "Alpha"}, "22": {"stimulus": 43, "trial": 22, "rt": 3174, "response": "Alpha"}, "23": {"stimulus": 17, "trial": 23, "rt": 1012, "response": "Beta"}, "46": {"stimulus": 80, "trial": 46, "rt": 556, "response": "Beta"}, "47": {"stimulus": 50, "trial": 47, "rt": 4282, "response": "Alpha"}, "44": {"stimulus": 4, "trial": 44, "rt": 1993, "response": "Alpha"}, "45": {"stimulus": 62, "trial": 45, "rt": 806, "response": "Beta"}, "28": {"stimulus": 35, "trial": 28, "rt": 1486, "response": "Beta"}, "29": {"stimulus": 3, "trial": 29, "rt": 1552, "response": "Beta"}, "40": {"stimulus": 30, "trial": 40, "rt": 1474, "response": "Alpha"}, "41": {"stimulus": 15, "trial": 41, "rt": 1106, "response": "Beta"}, "1": {"stimulus": 56, "trial": 1, "rt": 1312, "response": "Beta"}, "0": {"stimulus": 75, "trial": 0, "rt": 1934, "response": "Beta"}, "3": {"stimulus": 73, "trial": 3, "rt": 979, "response": "Beta"}, "2": {"stimulus": 60, "trial": 2, "rt": 1859, "response": "Beta"}, "5": {"stimulus": 70, "trial": 5, "rt": 906, "response": "Beta"}, "4": {"stimulus": 34, "trial": 4, "rt": 2051, "response": "Beta"}, "7": {"stimulus": 21, "trial": 7, "rt": 1121, "response": "Alpha"}, "6": {"stimulus": 27, "trial": 6, "rt": 1119, "response": "Beta"}, "9": {"stimulus": 12, "trial": 9, "rt": 987, "response": "Alpha"}, "8": {"stimulus": 28, "trial": 8, "rt": 1315, "response": "Alpha"}, "78": {"stimulus": 47, "trial": 78, "rt": 1253, "response": "Alpha"}, "51": {"stimulus": 9, "trial": 51, "rt": 1694, "response": "Beta"}, "39": {"stimulus": 68, "trial": 39, "rt": 2865, "response": "Beta"}, "65": {"stimulus": 66, "trial": 65, "rt": 671, "response": "Beta"}, "76": {"stimulus": 74, "trial": 76, "rt": 673, "response": "Beta"}, "75": {"stimulus": 18, "trial": 75, "rt": 1001, "response": "Beta"}, "38": {"stimulus": 54, "trial": 38, "rt": 3159, "response": "Beta"}, "73": {"stimulus": 32, "trial": 73, "rt": 942, "response": "Alpha"}, "72": {"stimulus": 2, "trial": 72, "rt": 1370, "response": "Beta"}, "71": {"stimulus": 44, "trial": 71, "rt": 2112, "response": "Beta"}, "70": {"stimulus": 1, "trial": 70, "rt": 1576, "response": "Beta"}, "59": {"stimulus": 65, "trial": 59, "rt": 569, "response": "Beta"}, "79": {"stimulus": 23, "trial": 79, "rt": 1168, "response": "Alpha"}, "58": {"stimulus": 78, "trial": 58, "rt": 1062, "response": "Beta"}, "11": {"stimulus": 13, "trial": 11, "rt": 1423, "response": "Alpha"}, "10": {"stimulus": 76, "trial": 10, "rt": 1002, "response": "Beta"}, "13": {"stimulus": 41, "trial": 13, "rt": 1168, "response": "Alpha"}, "12": {"stimulus": 7, "trial": 12, "rt": 1497, "response": "Beta"}, "15": {"stimulus": 25, "trial": 15, "rt": 3205, "response": "Beta"}, "14": {"stimulus": 57, "trial": 14, "rt": 974, "response": "Alpha"}, "17": {"stimulus": 22, "trial": 17, "rt": 885, "response": "Alpha"}, "16": {"stimulus": 26, "trial": 16, "rt": 833, "response": "Beta"}, "19": {"stimulus": 20, "trial": 19, "rt": 855, "response": "Alpha"}, "18": {"stimulus": 48, "trial": 18, "rt": 1756, "response": "Alpha"}, "31": {"stimulus": 6, "trial": 31, "rt": 2345, "response": "Beta"}, "30": {"stimulus": 39, "trial": 30, "rt": 1467, "response": "Alpha"}, "37": {"stimulus": 51, "trial": 37, "rt": 1323, "response": "Beta"}, "36": {"stimulus": 31, "trial": 36, "rt": 2105, "response": "Alpha"}, "35": {"stimulus": 53, "trial": 35, "rt": 1030, "response": "Beta"}, "34": {"stimulus": 38, "trial": 34, "rt": 1668, "response": "Alpha"}, "33": {"stimulus": 19, "trial": 33, "rt": 1780, "response": "Beta"}, "55": {"stimulus": 45, "trial": 55, "rt": 618, "response": "Beta"}, "74": {"stimulus": 16, "trial": 74, "rt": 1004, "response": "Beta"}, "32": {"stimulus": 24, "trial": 32, "rt": 839, "response": "Beta"}, "57": {"stimulus": 72, "trial": 57, "rt": 528, "response": "Beta"}, "50": {"stimulus": 69, "trial": 50, "rt": 562, "response": "Beta"}}}62, "response": "Beta"}}}