{"generation": {"1": {"stimulus": 8, "trial": 1, "rt": 10340}, "0": {"stimulus": 20, "trial": 0, "rt": 15523}, "3": {"stimulus": 1, "trial": 3, "rt": 5314}, "2": {"stimulus": 0, "trial": 2, "rt": 5201}}, "info": {"finish": 1482174755846, "participant": 51, "exposed": true, "lab": false, "start": 1482174441000, "counterbalance": 3, "condition": "Middle", "browser": {"platform": "Win32", "userAgent": "Mozilla/5.0 (Windows NT 10.0; WOW64; rv:50.0) Gecko/20100101 Firefox/50.0"}}, "experiment": {"Paradigm": "TACL", "Stimuli": "Size-Color Squares", "Experiment": "Generating-Categories"}, "observation": {"11": {"stimulus": 30, "trial": 11, "rt": 1198}, "10": {"stimulus": 50, "trial": 10, "rt": 1195}, "1": {"stimulus": 32, "trial": 1, "rt": 1699}, "0": {"stimulus": 48, "trial": 0, "rt": 3160}, "3": {"stimulus": 50, "trial": 3, "rt": 1232}, "2": {"stimulus": 30, "trial": 2, "rt": 1539}, "5": {"stimulus": 32, "trial": 5, "rt": 1227}, "4": {"stimulus": 50, "trial": 4, "rt": 1302}, "7": {"stimulus": 30, "trial": 7, "rt": 1435}, "6": {"stimulus": 48, "trial": 6, "rt": 1202}, "9": {"stimulus": 48, "trial": 9, "rt": 1264}, "8": {"stimulus": 32, "trial": 8, "rt": 1288}}, "generalization": {"56": {"stimulus": 80, "trial": 56, "rt": 548, "response": "Alpha"}, "77": {"stimulus": 20, "trial": 77, "rt": 1384, "response": "Beta"}, "54": {"stimulus": 56, "trial": 54, "rt": 669, "response": "Alpha"}, "42": {"stimulus": 49, "trial": 42, "rt": 639, "response": "Alpha"}, "48": {"stimulus": 2, "trial": 48, "rt": 1201, "response": "Beta"}, "43": {"stimulus": 13, "trial": 43, "rt": 1524, "response": "Beta"}, "60": {"stimulus": 69, "trial": 60, "rt": 706, "response": "Alpha"}, "61": {"stimulus": 18, "trial": 61, "rt": 1729, "response": "Beta"}, "62": {"stimulus": 37, "trial": 62, "rt": 1351, "response": "Alpha"}, "63": {"stimulus": 61, "trial": 63, "rt": 670, "response": "Alpha"}, "64": {"stimulus": 15, "trial": 64, "rt": 1351, "response": "Beta"}, "49": {"stimulus": 54, "trial": 49, "rt": 1216, "response": "Alpha"}, "66": {"stimulus": 4, "trial": 66, "rt": 1179, "response": "Beta"}, "67": {"stimulus": 78, "trial": 67, "rt": 1426, "response": "Alpha"}, "68": {"stimulus": 46, "trial": 68, "rt": 832, "response": "Alpha"}, "69": {"stimulus": 41, "trial": 69, "rt": 968, "response": "Alpha"}, "80": {"stimulus": 76, "trial": 80, "rt": 1326, "response": "Alpha"}, "52": {"stimulus": 5, "trial": 52, "rt": 76358, "response": "Beta"}, "53": {"stimulus": 51, "trial": 53, "rt": 1278, "response": "Alpha"}, "24": {"stimulus": 8, "trial": 24, "rt": 1405, "response": "Beta"}, "25": {"stimulus": 68, "trial": 25, "rt": 1548, "response": "Beta"}, "26": {"stimulus": 64, "trial": 26, "rt": 1722, "response": "Beta"}, "27": {"stimulus": 21, "trial": 27, "rt": 1392, "response": "Beta"}, "20": {"stimulus": 40, "trial": 20, "rt": 1475, "response": "Alpha"}, "21": {"stimulus": 42, "trial": 21, "rt": 883, "response": "Alpha"}, "22": {"stimulus": 16, "trial": 22, "rt": 1387, "response": "Beta"}, "23": {"stimulus": 45, "trial": 23, "rt": 1290, "response": "Alpha"}, "46": {"stimulus": 77, "trial": 46, "rt": 610, "response": "Alpha"}, "47": {"stimulus": 74, "trial": 47, "rt": 546, "response": "Alpha"}, "44": {"stimulus": 29, "trial": 44, "rt": 1364, "response": "Alpha"}, "45": {"stimulus": 43, "trial": 45, "rt": 672, "response": "Alpha"}, "28": {"stimulus": 9, "trial": 28, "rt": 1145, "response": "Beta"}, "29": {"stimulus": 22, "trial": 29, "rt": 1149, "response": "Beta"}, "40": {"stimulus": 32, "trial": 40, "rt": 2747, "response": "Alpha"}, "41": {"stimulus": 53, "trial": 41, "rt": 832, "response": "Alpha"}, "1": {"stimulus": 52, "trial": 1, "rt": 1562, "response": "Alpha"}, "0": {"stimulus": 17, "trial": 0, "rt": 3435, "response": "Beta"}, "3": {"stimulus": 73, "trial": 3, "rt": 1363, "response": "Alpha"}, "2": {"stimulus": 1, "trial": 2, "rt": 1164, "response": "Beta"}, "5": {"stimulus": 33, "trial": 5, "rt": 1160, "response": "Alpha"}, "4": {"stimulus": 24, "trial": 4, "rt": 2278, "response": "Alpha"}, "7": {"stimulus": 71, "trial": 7, "rt": 585, "response": "Alpha"}, "6": {"stimulus": 38, "trial": 6, "rt": 859, "response": "Alpha"}, "9": {"stimulus": 34, "trial": 9, "rt": 905, "response": "Alpha"}, "8": {"stimulus": 72, "trial": 8, "rt": 611, "response": "Alpha"}, "78": {"stimulus": 7, "trial": 78, "rt": 1094, "response": "Beta"}, "51": {"stimulus": 79, "trial": 51, "rt": 7615, "response": "Alpha"}, "39": {"stimulus": 59, "trial": 39, "rt": 4983, "response": "Alpha"}, "65": {"stimulus": 75, "trial": 65, "rt": 1155, "response": "Alpha"}, "76": {"stimulus": 48, "trial": 76, "rt": 2542, "response": "Alpha"}, "75": {"stimulus": 12, "trial": 75, "rt": 828, "response": "Beta"}, "38": {"stimulus": 3, "trial": 38, "rt": 1406, "response": "Beta"}, "73": {"stimulus": 35, "trial": 73, "rt": 605, "response": "Alpha"}, "72": {"stimulus": 58, "trial": 72, "rt": 598, "response": "Alpha"}, "71": {"stimulus": 39, "trial": 71, "rt": 624, "response": "Alpha"}, "70": {"stimulus": 36, "trial": 70, "rt": 574, "response": "Alpha"}, "59": {"stimulus": 26, "trial": 59, "rt": 586, "response": "Alpha"}, "79": {"stimulus": 0, "trial": 79, "rt": 1285, "response": "Beta"}, "58": {"stimulus": 44, "trial": 58, "rt": 645, "response": "Alpha"}, "11": {"stimulus": 62, "trial": 11, "rt": 1891, "response": "Alpha"}, "10": {"stimulus": 30, "trial": 10, "rt": 576, "response": "Alpha"}, "13": {"stimulus": 65, "trial": 13, "rt": 643, "response": "Alpha"}, "12": {"stimulus": 27, "trial": 12, "rt": 882, "response": "Alpha"}, "15": {"stimulus": 25, "trial": 15, "rt": 1635, "response": "Alpha"}, "14": {"stimulus": 70, "trial": 14, "rt": 1659, "response": "Beta"}, "17": {"stimulus": 6, "trial": 17, "rt": 1313, "response": "Beta"}, "16": {"stimulus": 47, "trial": 16, "rt": 1241, "response": "Alpha"}, "19": {"stimulus": 14, "trial": 19, "rt": 1218, "response": "Beta"}, "18": {"stimulus": 55, "trial": 18, "rt": 2059, "response": "Beta"}, "31": {"stimulus": 10, "trial": 31, "rt": 1701, "response": "Beta"}, "30": {"stimulus": 57, "trial": 30, "rt": 1200, "response": "Alpha"}, "37": {"stimulus": 50, "trial": 37, "rt": 2322, "response": "Alpha"}, "36": {"stimulus": 60, "trial": 36, "rt": 882, "response": "Beta"}, "35": {"stimulus": 67, "trial": 35, "rt": 1128, "response": "Beta"}, "34": {"stimulus": 23, "trial": 34, "rt": 991, "response": "Beta"}, "33": {"stimulus": 63, "trial": 33, "rt": 2129, "response": "Beta"}, "55": {"stimulus": 66, "trial": 55, "rt": 547, "response": "Alpha"}, "74": {"stimulus": 19, "trial": 74, "rt": 2517, "response": "Beta"}, "32": {"stimulus": 11, "trial": 32, "rt": 955, "response": "Beta"}, "57": {"stimulus": 28, "trial": 57, "rt": 2454, "response": "Alpha"}, "50": {"stimulus": 31, "trial": 50, "rt": 1301, "response": "Alpha"}}}