{"generation": {"1": {"stimulus": 56, "trial": 1, "rt": 6520}, "0": {"stimulus": 5, "trial": 0, "rt": 10561}, "3": {"stimulus": 7, "trial": 3, "rt": 3873}, "2": {"stimulus": 1, "trial": 2, "rt": 5952}}, "info": {"finish": 1482174632758, "participant": 53, "exposed": true, "lab": false, "start": 1482174454687, "counterbalance": 3, "condition": "Bottom", "browser": {"platform": "Win32", "userAgent": "Mozilla/5.0 (Windows NT 10.0; WOW64) AppleWebKit/537.36 (KHTML, like Gecko) Chrome/55.0.2883.87 Safari/537.36"}}, "experiment": {"Paradigm": "TACL", "Stimuli": "Size-Color Squares", "Experiment": "Generating-Categories"}, "observation": {"11": {"stimulus": 12, "trial": 11, "rt": 2436}, "10": {"stimulus": 30, "trial": 10, "rt": 789}, "1": {"stimulus": 32, "trial": 1, "rt": 1406}, "0": {"stimulus": 30, "trial": 0, "rt": 2236}, "3": {"stimulus": 12, "trial": 3, "rt": 1140}, "2": {"stimulus": 14, "trial": 2, "rt": 1338}, "5": {"stimulus": 14, "trial": 5, "rt": 978}, "4": {"stimulus": 30, "trial": 4, "rt": 1288}, "7": {"stimulus": 12, "trial": 7, "rt": 1092}, "6": {"stimulus": 32, "trial": 6, "rt": 1147}, "9": {"stimulus": 32, "trial": 9, "rt": 1150}, "8": {"stimulus": 14, "trial": 8, "rt": 954}}, "generalization": {"56": {"stimulus": 42, "trial": 56, "rt": 516, "response": "Beta"}, "77": {"stimulus": 61, "trial": 77, "rt": 497, "response": "Beta"}, "54": {"stimulus": 18, "trial": 54, "rt": 6699, "response": "Alpha"}, "42": {"stimulus": 7, "trial": 42, "rt": 1183, "response": "Beta"}, "48": {"stimulus": 6, "trial": 48, "rt": 804, "response": "Beta"}, "43": {"stimulus": 73, "trial": 43, "rt": 795, "response": "Beta"}, "60": {"stimulus": 14, "trial": 60, "rt": 682, "response": "Beta"}, "61": {"stimulus": 57, "trial": 61, "rt": 498, "response": "Beta"}, "62": {"stimulus": 53, "trial": 62, "rt": 497, "response": "Beta"}, "63": {"stimulus": 44, "trial": 63, "rt": 514, "response": "Beta"}, "64": {"stimulus": 74, "trial": 64, "rt": 481, "response": "Beta"}, "49": {"stimulus": 26, "trial": 49, "rt": 727, "response": "Beta"}, "66": {"stimulus": 35, "trial": 66, "rt": 656, "response": "Beta"}, "67": {"stimulus": 25, "trial": 67, "rt": 616, "response": "Beta"}, "68": {"stimulus": 22, "trial": 68, "rt": 1490, "response": "Alpha"}, "69": {"stimulus": 79, "trial": 69, "rt": 1438, "response": "Beta"}, "80": {"stimulus": 64, "trial": 80, "rt": 498, "response": "Beta"}, "52": {"stimulus": 68, "trial": 52, "rt": 543, "response": "Beta"}, "53": {"stimulus": 71, "trial": 53, "rt": 539, "response": "Beta"}, "24": {"stimulus": 3, "trial": 24, "rt": 962, "response": "Beta"}, "25": {"stimulus": 80, "trial": 25, "rt": 884, "response": "Beta"}, "26": {"stimulus": 12, "trial": 26, "rt": 1029, "response": "Alpha"}, "27": {"stimulus": 34, "trial": 27, "rt": 1033, "response": "Beta"}, "20": {"stimulus": 2, "trial": 20, "rt": 817, "response": "Alpha"}, "21": {"stimulus": 29, "trial": 21, "rt": 846, "response": "Beta"}, "22": {"stimulus": 63, "trial": 22, "rt": 534, "response": "Beta"}, "23": {"stimulus": 59, "trial": 23, "rt": 764, "response": "Beta"}, "46": {"stimulus": 60, "trial": 46, "rt": 582, "response": "Beta"}, "47": {"stimulus": 50, "trial": 47, "rt": 458, "response": "Beta"}, "44": {"stimulus": 46, "trial": 44, "rt": 746, "response": "Beta"}, "45": {"stimulus": 40, "trial": 45, "rt": 628, "response": "Beta"}, "28": {"stimulus": 78, "trial": 28, "rt": 522, "response": "Beta"}, "29": {"stimulus": 5, "trial": 29, "rt": 1120, "response": "Beta"}, "40": {"stimulus": 75, "trial": 40, "rt": 542, "response": "Beta"}, "41": {"stimulus": 4, "trial": 41, "rt": 1629, "response": "Alpha"}, "1": {"stimulus": 19, "trial": 1, "rt": 1171, "response": "Alpha"}, "0": {"stimulus": 49, "trial": 0, "rt": 3620, "response": "Beta"}, "3": {"stimulus": 9, "trial": 3, "rt": 1770, "response": "Beta"}, "2": {"stimulus": 33, "trial": 2, "rt": 1365, "response": "Alpha"}, "5": {"stimulus": 32, "trial": 5, "rt": 731, "response": "Beta"}, "4": {"stimulus": 47, "trial": 4, "rt": 1022, "response": "Beta"}, "7": {"stimulus": 43, "trial": 7, "rt": 769, "response": "Beta"}, "6": {"stimulus": 52, "trial": 6, "rt": 772, "response": "Beta"}, "9": {"stimulus": 56, "trial": 9, "rt": 598, "response": "Beta"}, "8": {"stimulus": 70, "trial": 8, "rt": 779, "response": "Beta"}, "78": {"stimulus": 1, "trial": 78, "rt": 1066, "response": "Beta"}, "51": {"stimulus": 31, "trial": 51, "rt": 556, "response": "Beta"}, "39": {"stimulus": 30, "trial": 39, "rt": 710, "response": "Beta"}, "65": {"stimulus": 66, "trial": 65, "rt": 496, "response": "Beta"}, "76": {"stimulus": 54, "trial": 76, "rt": 733, "response": "Beta"}, "75": {"stimulus": 39, "trial": 75, "rt": 570, "response": "Beta"}, "38": {"stimulus": 36, "trial": 38, "rt": 706, "response": "Beta"}, "73": {"stimulus": 23, "trial": 73, "rt": 839, "response": "Beta"}, "72": {"stimulus": 8, "trial": 72, "rt": 565, "response": "Beta"}, "71": {"stimulus": 15, "trial": 71, "rt": 619, "response": "Beta"}, "70": {"stimulus": 58, "trial": 70, "rt": 502, "response": "Beta"}, "59": {"stimulus": 10, "trial": 59, "rt": 924, "response": "Alpha"}, "79": {"stimulus": 17, "trial": 79, "rt": 615, "response": "Beta"}, "58": {"stimulus": 20, "trial": 58, "rt": 1449, "response": "Alpha"}, "11": {"stimulus": 24, "trial": 11, "rt": 923, "response": "Alpha"}, "10": {"stimulus": 69, "trial": 10, "rt": 560, "response": "Beta"}, "13": {"stimulus": 37, "trial": 13, "rt": 507, "response": "Beta"}, "12": {"stimulus": 45, "trial": 12, "rt": 987, "response": "Beta"}, "15": {"stimulus": 55, "trial": 15, "rt": 507, "response": "Beta"}, "14": {"stimulus": 51, "trial": 14, "rt": 633, "response": "Beta"}, "17": {"stimulus": 0, "trial": 17, "rt": 820, "response": "Alpha"}, "16": {"stimulus": 11, "trial": 16, "rt": 809, "response": "Alpha"}, "19": {"stimulus": 21, "trial": 19, "rt": 908, "response": "Alpha"}, "18": {"stimulus": 13, "trial": 18, "rt": 2028, "response": "Alpha"}, "31": {"stimulus": 27, "trial": 31, "rt": 859, "response": "Beta"}, "30": {"stimulus": 48, "trial": 30, "rt": 661, "response": "Beta"}, "37": {"stimulus": 72, "trial": 37, "rt": 561, "response": "Beta"}, "36": {"stimulus": 41, "trial": 36, "rt": 515, "response": "Beta"}, "35": {"stimulus": 38, "trial": 35, "rt": 853, "response": "Beta"}, "34": {"stimulus": 62, "trial": 34, "rt": 492, "response": "Beta"}, "33": {"stimulus": 67, "trial": 33, "rt": 556, "response": "Beta"}, "55": {"stimulus": 77, "trial": 55, "rt": 832, "response": "Beta"}, "74": {"stimulus": 28, "trial": 74, "rt": 692, "response": "Beta"}, "32": {"stimulus": 65, "trial": 32, "rt": 530, "response": "Beta"}, "57": {"stimulus": 76, "trial": 57, "rt": 460, "response": "Beta"}, "50": {"stimulus": 16, "trial": 50, "rt": 575, "response": "Beta"}}}