{"generation": {"1": {"stimulus": 80, "trial": 1, "rt": 5177}, "0": {"stimulus": 71, "trial": 0, "rt": 9329}, "3": {"stimulus": 79, "trial": 3, "rt": 4791}, "2": {"stimulus": 70, "trial": 2, "rt": 4524}}, "info": {"finish": 1482174669614, "participant": 54, "exposed": true, "lab": false, "start": 1482174613282, "counterbalance": 6, "condition": "Bottom", "browser": {"platform": "Win32", "userAgent": "Mozilla/5.0 (Windows NT 6.1; WOW64) AppleWebKit/537.36 (KHTML, like Gecko) Chrome/55.0.2883.87 Safari/537.36"}}, "experiment": {"Paradigm": "TACL", "Stimuli": "Size-Color Squares", "Experiment": "Generating-Categories"}, "observation": {"11": {"stimulus": 32, "trial": 11, "rt": 1147}, "10": {"stimulus": 30, "trial": 10, "rt": 963}, "1": {"stimulus": 14, "trial": 1, "rt": 1157}, "0": {"stimulus": 32, "trial": 0, "rt": -127218}, "3": {"stimulus": 12, "trial": 3, "rt": 988}, "2": {"stimulus": 30, "trial": 2, "rt": 1245}, "5": {"stimulus": 32, "trial": 5, "rt": 928}, "4": {"stimulus": 12, "trial": 4, "rt": 949}, "7": {"stimulus": 14, "trial": 7, "rt": 932}, "6": {"stimulus": 30, "trial": 6, "rt": 880}, "9": {"stimulus": 14, "trial": 9, "rt": 684}, "8": {"stimulus": 12, "trial": 8, "rt": 1036}}, "generalization": {"56": {"stimulus": 52, "trial": 56, "rt": 630, "response": "Beta"}, "77": {"stimulus": 54, "trial": 77, "rt": 945, "response": "Beta"}, "54": {"stimulus": 48, "trial": 54, "rt": 684, "response": "Beta"}, "42": {"stimulus": 53, "trial": 42, "rt": 587, "response": "Beta"}, "48": {"stimulus": 32, "trial": 48, "rt": 777, "response": "Alpha"}, "43": {"stimulus": 0, "trial": 43, "rt": 865, "response": "Alpha"}, "60": {"stimulus": 23, "trial": 60, "rt": 1191, "response": "Alpha"}, "61": {"stimulus": 22, "trial": 61, "rt": 590, "response": "Alpha"}, "62": {"stimulus": 44, "trial": 62, "rt": 813, "response": "Alpha"}, "63": {"stimulus": 65, "trial": 63, "rt": 873, "response": "Beta"}, "64": {"stimulus": 18, "trial": 64, "rt": 940, "response": "Alpha"}, "49": {"stimulus": 26, "trial": 49, "rt": 834, "response": "Alpha"}, "66": {"stimulus": 73, "trial": 66, "rt": 771, "response": "Beta"}, "67": {"stimulus": 25, "trial": 67, "rt": 1657, "response": "Alpha"}, "68": {"stimulus": 61, "trial": 68, "rt": 1084, "response": "Beta"}, "69": {"stimulus": 70, "trial": 69, "rt": 792, "response": "Beta"}, "80": {"stimulus": 45, "trial": 80, "rt": 874, "response": "Beta"}, "52": {"stimulus": 5, "trial": 52, "rt": 776, "response": "Alpha"}, "53": {"stimulus": 58, "trial": 53, "rt": 834, "response": "Beta"}, "24": {"stimulus": 10, "trial": 24, "rt": 790, "response": "Alpha"}, "25": {"stimulus": 62, "trial": 25, "rt": 833, "response": "Beta"}, "26": {"stimulus": 68, "trial": 26, "rt": 532, "response": "Beta"}, "27": {"stimulus": 7, "trial": 27, "rt": 1223, "response": "Alpha"}, "20": {"stimulus": 55, "trial": 20, "rt": 661, "response": "Beta"}, "21": {"stimulus": 37, "trial": 21, "rt": 2942, "response": "Beta"}, "22": {"stimulus": 13, "trial": 22, "rt": 779, "response": "Alpha"}, "23": {"stimulus": 49, "trial": 23, "rt": 1077, "response": "Beta"}, "46": {"stimulus": 1, "trial": 46, "rt": 785, "response": "Alpha"}, "47": {"stimulus": 59, "trial": 47, "rt": 929, "response": "Beta"}, "44": {"stimulus": 43, "trial": 44, "rt": 1147, "response": "Alpha"}, "45": {"stimulus": 64, "trial": 45, "rt": 1177, "response": "Beta"}, "28": {"stimulus": 11, "trial": 28, "rt": 837, "response": "Alpha"}, "29": {"stimulus": 36, "trial": 29, "rt": 778, "response": "Beta"}, "40": {"stimulus": 34, "trial": 40, "rt": 822, "response": "Alpha"}, "41": {"stimulus": 78, "trial": 41, "rt": 738, "response": "Beta"}, "1": {"stimulus": 24, "trial": 1, "rt": 984, "response": "Alpha"}, "0": {"stimulus": 56, "trial": 0, "rt": 1358, "response": "Beta"}, "3": {"stimulus": 57, "trial": 3, "rt": 1012, "response": "Alpha"}, "2": {"stimulus": 31, "trial": 2, "rt": 1716, "response": "Alpha"}, "5": {"stimulus": 46, "trial": 5, "rt": 829, "response": "Beta"}, "4": {"stimulus": 63, "trial": 4, "rt": 1000, "response": "Beta"}, "7": {"stimulus": 50, "trial": 7, "rt": 558, "response": "Beta"}, "6": {"stimulus": 67, "trial": 6, "rt": 1844, "response": "Beta"}, "9": {"stimulus": 75, "trial": 9, "rt": 1011, "response": "Beta"}, "8": {"stimulus": 28, "trial": 8, "rt": 1393, "response": "Alpha"}, "78": {"stimulus": 60, "trial": 78, "rt": 532, "response": "Beta"}, "51": {"stimulus": 80, "trial": 51, "rt": 582, "response": "Beta"}, "39": {"stimulus": 66, "trial": 39, "rt": 1254, "response": "Beta"}, "65": {"stimulus": 30, "trial": 65, "rt": 825, "response": "Alpha"}, "76": {"stimulus": 19, "trial": 76, "rt": 1048, "response": "Alpha"}, "75": {"stimulus": 42, "trial": 75, "rt": 908, "response": "Alpha"}, "38": {"stimulus": 9, "trial": 38, "rt": 628, "response": "Alpha"}, "73": {"stimulus": 51, "trial": 73, "rt": 807, "response": "Alpha"}, "72": {"stimulus": 2, "trial": 72, "rt": 569, "response": "Alpha"}, "71": {"stimulus": 6, "trial": 71, "rt": 1011, "response": "Alpha"}, "70": {"stimulus": 41, "trial": 70, "rt": 1648, "response": "Alpha"}, "59": {"stimulus": 77, "trial": 59, "rt": 1149, "response": "Beta"}, "79": {"stimulus": 14, "trial": 79, "rt": 1312, "response": "Alpha"}, "58": {"stimulus": 39, "trial": 58, "rt": 1122, "response": "Beta"}, "11": {"stimulus": 33, "trial": 11, "rt": 698, "response": "Alpha"}, "10": {"stimulus": 4, "trial": 10, "rt": 958, "response": "Alpha"}, "13": {"stimulus": 20, "trial": 13, "rt": 745, "response": "Alpha"}, "12": {"stimulus": 21, "trial": 12, "rt": 608, "response": "Alpha"}, "15": {"stimulus": 74, "trial": 15, "rt": 546, "response": "Beta"}, "14": {"stimulus": 72, "trial": 14, "rt": 691, "response": "Beta"}, "17": {"stimulus": 8, "trial": 17, "rt": 802, "response": "Alpha"}, "16": {"stimulus": 69, "trial": 16, "rt": 544, "response": "Beta"}, "19": {"stimulus": 40, "trial": 19, "rt": 1532, "response": "Alpha"}, "18": {"stimulus": 17, "trial": 18, "rt": 454, "response": "Alpha"}, "31": {"stimulus": 29, "trial": 31, "rt": 1171, "response": "Alpha"}, "30": {"stimulus": 3, "trial": 30, "rt": 868, "response": "Alpha"}, "37": {"stimulus": 27, "trial": 37, "rt": 735, "response": "Alpha"}, "36": {"stimulus": 35, "trial": 36, "rt": 711, "response": "Alpha"}, "35": {"stimulus": 15, "trial": 35, "rt": 924, "response": "Alpha"}, "34": {"stimulus": 12, "trial": 34, "rt": 905, "response": "Alpha"}, "33": {"stimulus": 16, "trial": 33, "rt": 840, "response": "Alpha"}, "55": {"stimulus": 71, "trial": 55, "rt": 694, "response": "Beta"}, "74": {"stimulus": 76, "trial": 74, "rt": 733, "response": "Beta"}, "32": {"stimulus": 79, "trial": 32, "rt": 727, "response": "Beta"}, "57": {"stimulus": 47, "trial": 57, "rt": 600, "response": "Beta"}, "50": {"stimulus": 38, "trial": 50, "rt": 968, "response": "Beta"}}}