{"generation": {"1": {"stimulus": 4, "trial": 1, "rt": 7037}, "0": {"stimulus": 76, "trial": 0, "rt": 8192}, "3": {"stimulus": 72, "trial": 3, "rt": 4244}, "2": {"stimulus": 36, "trial": 2, "rt": 8015}}, "info": {"finish": 1482175127674, "participant": 55, "exposed": true, "lab": false, "start": 1482174503875, "counterbalance": 1, "condition": "Middle", "browser": {"platform": "Win32", "userAgent": "Mozilla/5.0 (Windows NT 10.0; Win64; x64) AppleWebKit/537.36 (KHTML, like Gecko) Chrome/55.0.2883.87 Safari/537.36"}}, "experiment": {"Paradigm": "TACL", "Stimuli": "Size-Color Squares", "Experiment": "Generating-Categories"}, "observation": {"11": {"stimulus": 50, "trial": 11, "rt": 659}, "10": {"stimulus": 30, "trial": 10, "rt": 758}, "1": {"stimulus": 32, "trial": 1, "rt": 1588}, "0": {"stimulus": 50, "trial": 0, "rt": 2292}, "3": {"stimulus": 30, "trial": 3, "rt": 1221}, "2": {"stimulus": 48, "trial": 2, "rt": 1461}, "5": {"stimulus": 30, "trial": 5, "rt": 877}, "4": {"stimulus": 48, "trial": 4, "rt": 1084}, "7": {"stimulus": 32, "trial": 7, "rt": 905}, "6": {"stimulus": 50, "trial": 6, "rt": 866}, "9": {"stimulus": 32, "trial": 9, "rt": 769}, "8": {"stimulus": 48, "trial": 8, "rt": 772}}, "generalization": {"56": {"stimulus": 58, "trial": 56, "rt": 965, "response": "Alpha"}, "77": {"stimulus": 44, "trial": 77, "rt": 541, "response": "Alpha"}, "54": {"stimulus": 31, "trial": 54, "rt": 1243, "response": "Alpha"}, "42": {"stimulus": 8, "trial": 42, "rt": 928, "response": "Beta"}, "48": {"stimulus": 75, "trial": 48, "rt": 531, "response": "Beta"}, "43": {"stimulus": 54, "trial": 43, "rt": 1090, "response": "Beta"}, "60": {"stimulus": 56, "trial": 60, "rt": 1045, "response": "Alpha"}, "61": {"stimulus": 48, "trial": 61, "rt": 33896, "response": "Alpha"}, "62": {"stimulus": 18, "trial": 62, "rt": 707, "response": "Beta"}, "63": {"stimulus": 23, "trial": 63, "rt": 901, "response": "Alpha"}, "64": {"stimulus": 25, "trial": 64, "rt": 764, "response": "Alpha"}, "49": {"stimulus": 2, "trial": 49, "rt": 952, "response": "Beta"}, "66": {"stimulus": 4, "trial": 66, "rt": 486, "response": "Beta"}, "67": {"stimulus": 28, "trial": 67, "rt": 1155, "response": "Beta"}, "68": {"stimulus": 69, "trial": 68, "rt": 1136, "response": "Alpha"}, "69": {"stimulus": 64, "trial": 69, "rt": 1468, "response": "Beta"}, "80": {"stimulus": 46, "trial": 80, "rt": 533, "response": "Beta"}, "52": {"stimulus": 24, "trial": 52, "rt": 671, "response": "Alpha"}, "53": {"stimulus": 36, "trial": 53, "rt": 937, "response": "Beta"}, "24": {"stimulus": 5, "trial": 24, "rt": 999, "response": "Alpha"}, "25": {"stimulus": 38, "trial": 25, "rt": 953, "response": "Alpha"}, "26": {"stimulus": 21, "trial": 26, "rt": 860, "response": "Alpha"}, "27": {"stimulus": 6, "trial": 27, "rt": 770, "response": "Beta"}, "20": {"stimulus": 16, "trial": 20, "rt": 1205, "response": "Beta"}, "21": {"stimulus": 35, "trial": 21, "rt": 2384, "response": "Alpha"}, "22": {"stimulus": 33, "trial": 22, "rt": 593, "response": "Alpha"}, "23": {"stimulus": 27, "trial": 23, "rt": 330771, "response": "Beta"}, "46": {"stimulus": 37, "trial": 46, "rt": 780, "response": "Beta"}, "47": {"stimulus": 17, "trial": 47, "rt": 609, "response": "Beta"}, "44": {"stimulus": 30, "trial": 44, "rt": 1100, "response": "Beta"}, "45": {"stimulus": 7, "trial": 45, "rt": 669, "response": "Beta"}, "28": {"stimulus": 3, "trial": 28, "rt": 736, "response": "Beta"}, "29": {"stimulus": 34, "trial": 29, "rt": 703, "response": "Alpha"}, "40": {"stimulus": 50, "trial": 40, "rt": 1745, "response": "Alpha"}, "41": {"stimulus": 63, "trial": 41, "rt": 6679, "response": "Beta"}, "1": {"stimulus": 52, "trial": 1, "rt": 999, "response": "Alpha"}, "0": {"stimulus": 14, "trial": 0, "rt": 3596, "response": "Beta"}, "3": {"stimulus": 79, "trial": 3, "rt": 1014, "response": "Beta"}, "2": {"stimulus": 11, "trial": 2, "rt": 869, "response": "Beta"}, "5": {"stimulus": 32, "trial": 5, "rt": 1248, "response": "Alpha"}, "4": {"stimulus": 26, "trial": 4, "rt": 1000, "response": "Alpha"}, "7": {"stimulus": 43, "trial": 7, "rt": 1025, "response": "Alpha"}, "6": {"stimulus": 61, "trial": 6, "rt": 930, "response": "Alpha"}, "9": {"stimulus": 29, "trial": 9, "rt": 998, "response": "Beta"}, "8": {"stimulus": 40, "trial": 8, "rt": 608, "response": "Alpha"}, "78": {"stimulus": 39, "trial": 78, "rt": 727, "response": "Beta"}, "51": {"stimulus": 15, "trial": 51, "rt": 2248, "response": "Alpha"}, "39": {"stimulus": 76, "trial": 39, "rt": 1064, "response": "Beta"}, "65": {"stimulus": 74, "trial": 65, "rt": 1123, "response": "Beta"}, "76": {"stimulus": 53, "trial": 76, "rt": 554, "response": "Alpha"}, "75": {"stimulus": 12, "trial": 75, "rt": 946, "response": "Alpha"}, "38": {"stimulus": 60, "trial": 38, "rt": 752, "response": "Alpha"}, "73": {"stimulus": 80, "trial": 73, "rt": 588, "response": "Beta"}, "72": {"stimulus": 0, "trial": 72, "rt": 707, "response": "Beta"}, "71": {"stimulus": 65, "trial": 71, "rt": 498, "response": "Beta"}, "70": {"stimulus": 66, "trial": 70, "rt": 729, "response": "Beta"}, "59": {"stimulus": 51, "trial": 59, "rt": 887, "response": "Alpha"}, "79": {"stimulus": 9, "trial": 79, "rt": 500, "response": "Beta"}, "58": {"stimulus": 72, "trial": 58, "rt": 671, "response": "Beta"}, "11": {"stimulus": 59, "trial": 11, "rt": 527, "response": "Beta"}, "10": {"stimulus": 67, "trial": 10, "rt": 995, "response": "Beta"}, "13": {"stimulus": 77, "trial": 13, "rt": 694, "response": "Beta"}, "12": {"stimulus": 57, "trial": 12, "rt": 915, "response": "Beta"}, "15": {"stimulus": 42, "trial": 15, "rt": 584, "response": "Alpha"}, "14": {"stimulus": 45, "trial": 14, "rt": 989, "response": "Alpha"}, "17": {"stimulus": 73, "trial": 17, "rt": 928, "response": "Beta"}, "16": {"stimulus": 13, "trial": 16, "rt": 931, "response": "Beta"}, "19": {"stimulus": 49, "trial": 19, "rt": 878, "response": "Alpha"}, "18": {"stimulus": 22, "trial": 18, "rt": 835, "response": "Alpha"}, "31": {"stimulus": 20, "trial": 31, "rt": 1076, "response": "Alpha"}, "30": {"stimulus": 19, "trial": 30, "rt": 942, "response": "Beta"}, "37": {"stimulus": 78, "trial": 37, "rt": 804, "response": "Beta"}, "36": {"stimulus": 62, "trial": 36, "rt": 787, "response": "Alpha"}, "35": {"stimulus": 68, "trial": 35, "rt": 1133, "response": "Beta"}, "34": {"stimulus": 41, "trial": 34, "rt": 2997, "response": "Alpha"}, "33": {"stimulus": 10, "trial": 33, "rt": 711, "response": "Beta"}, "55": {"stimulus": 70, "trial": 55, "rt": 1066, "response": "Beta"}, "74": {"stimulus": 1, "trial": 74, "rt": 632, "response": "Beta"}, "32": {"stimulus": 47, "trial": 32, "rt": 60780, "response": "Alpha"}, "57": {"stimulus": 55, "trial": 57, "rt": 1114, "response": "Beta"}, "50": {"stimulus": 71, "trial": 50, "rt": 2079, "response": "Beta"}}}