{"generation": {"1": {"stimulus": 20, "trial": 1, "rt": 7327}, "0": {"stimulus": 0, "trial": 0, "rt": 7955}, "3": {"stimulus": 27, "trial": 3, "rt": 4643}, "2": {"stimulus": 10, "trial": 2, "rt": 4592}}, "info": {"finish": 1482175092096, "participant": 56, "exposed": true, "lab": false, "start": 1482174521472, "counterbalance": 7, "condition": "Bottom", "browser": {"platform": "Win32", "userAgent": "Mozilla/5.0 (Windows NT 10.0; WOW64) AppleWebKit/537.36 (KHTML, like Gecko) Chrome/55.0.2883.87 Safari/537.36"}}, "experiment": {"Paradigm": "TACL", "Stimuli": "Size-Color Squares", "Experiment": "Generating-Categories"}, "observation": {"11": {"stimulus": 30, "trial": 11, "rt": 633}, "10": {"stimulus": 12, "trial": 10, "rt": 604}, "1": {"stimulus": 32, "trial": 1, "rt": 1050}, "0": {"stimulus": 14, "trial": 0, "rt": 4903}, "3": {"stimulus": 12, "trial": 3, "rt": 906}, "2": {"stimulus": 30, "trial": 2, "rt": 1176}, "5": {"stimulus": 32, "trial": 5, "rt": 928}, "4": {"stimulus": 12, "trial": 4, "rt": 603}, "7": {"stimulus": 30, "trial": 7, "rt": 562}, "6": {"stimulus": 14, "trial": 6, "rt": 714}, "9": {"stimulus": 32, "trial": 9, "rt": 593}, "8": {"stimulus": 14, "trial": 8, "rt": 745}}, "generalization": {"56": {"stimulus": 62, "trial": 56, "rt": 370, "response": "Alpha"}, "77": {"stimulus": 78, "trial": 77, "rt": 349, "response": "Alpha"}, "54": {"stimulus": 5, "trial": 54, "rt": 480, "response": "Alpha"}, "42": {"stimulus": 20, "trial": 42, "rt": 776, "response": "Beta"}, "48": {"stimulus": 32, "trial": 48, "rt": 1293, "response": "Alpha"}, "43": {"stimulus": 46, "trial": 43, "rt": 1189, "response": "Beta"}, "60": {"stimulus": 6, "trial": 60, "rt": 662, "response": "Alpha"}, "61": {"stimulus": 45, "trial": 61, "rt": 775, "response": "Beta"}, "62": {"stimulus": 24, "trial": 62, "rt": 793, "response": "Alpha"}, "63": {"stimulus": 50, "trial": 63, "rt": 481, "response": "Alpha"}, "64": {"stimulus": 53, "trial": 64, "rt": 562, "response": "Alpha"}, "49": {"stimulus": 14, "trial": 49, "rt": 511, "response": "Alpha"}, "66": {"stimulus": 36, "trial": 66, "rt": 470, "response": "Alpha"}, "67": {"stimulus": 79, "trial": 67, "rt": 289, "response": "Alpha"}, "68": {"stimulus": 44, "trial": 68, "rt": 198, "response": "Alpha"}, "69": {"stimulus": 30, "trial": 69, "rt": 277, "response": "Alpha"}, "80": {"stimulus": 49, "trial": 80, "rt": 24108, "response": "Alpha"}, "52": {"stimulus": 17, "trial": 52, "rt": 694, "response": "Alpha"}, "53": {"stimulus": 34, "trial": 53, "rt": 755, "response": "Alpha"}, "24": {"stimulus": 55, "trial": 24, "rt": 1038, "response": "Alpha"}, "25": {"stimulus": 41, "trial": 25, "rt": 3063, "response": "Alpha"}, "26": {"stimulus": 76, "trial": 26, "rt": 724, "response": "Alpha"}, "27": {"stimulus": 42, "trial": 27, "rt": 1383, "response": "Alpha"}, "20": {"stimulus": 68, "trial": 20, "rt": 3325, "response": "Alpha"}, "21": {"stimulus": 72, "trial": 21, "rt": 2142, "response": "Beta"}, "22": {"stimulus": 0, "trial": 22, "rt": 1474, "response": "Beta"}, "23": {"stimulus": 40, "trial": 23, "rt": 794, "response": "Alpha"}, "46": {"stimulus": 65, "trial": 46, "rt": 612, "response": "Alpha"}, "47": {"stimulus": 2, "trial": 47, "rt": 1503, "response": "Alpha"}, "44": {"stimulus": 75, "trial": 44, "rt": 1221, "response": "Alpha"}, "45": {"stimulus": 77, "trial": 45, "rt": 1664, "response": "Alpha"}, "28": {"stimulus": 16, "trial": 28, "rt": 2637, "response": "Alpha"}, "29": {"stimulus": 23, "trial": 29, "rt": 723, "response": "Alpha"}, "40": {"stimulus": 39, "trial": 40, "rt": 1331, "response": "Alpha"}, "41": {"stimulus": 18, "trial": 41, "rt": 825, "response": "Beta"}, "1": {"stimulus": 43, "trial": 1, "rt": 1402, "response": "Beta"}, "0": {"stimulus": 54, "trial": 0, "rt": 1159, "response": "Beta"}, "3": {"stimulus": 19, "trial": 3, "rt": 1758, "response": "Alpha"}, "2": {"stimulus": 29, "trial": 2, "rt": 2010, "response": "Alpha"}, "5": {"stimulus": 63, "trial": 5, "rt": 1251, "response": "Beta"}, "4": {"stimulus": 3, "trial": 4, "rt": 1272, "response": "Beta"}, "7": {"stimulus": 12, "trial": 7, "rt": 664, "response": "Alpha"}, "6": {"stimulus": 4, "trial": 6, "rt": 3206, "response": "Alpha"}, "9": {"stimulus": 59, "trial": 9, "rt": 2182, "response": "Alpha"}, "8": {"stimulus": 26, "trial": 8, "rt": 1453, "response": "Beta"}, "78": {"stimulus": 7, "trial": 78, "rt": 22953, "response": "Alpha"}, "51": {"stimulus": 38, "trial": 51, "rt": 754, "response": "Beta"}, "39": {"stimulus": 52, "trial": 39, "rt": 591, "response": "Alpha"}, "65": {"stimulus": 8, "trial": 65, "rt": 421, "response": "Alpha"}, "76": {"stimulus": 60, "trial": 76, "rt": 642, "response": "Alpha"}, "75": {"stimulus": 56, "trial": 75, "rt": 500, "response": "Alpha"}, "38": {"stimulus": 15, "trial": 38, "rt": 754, "response": "Alpha"}, "73": {"stimulus": 27, "trial": 73, "rt": 1078, "response": "Beta"}, "72": {"stimulus": 57, "trial": 72, "rt": 985, "response": "Alpha"}, "71": {"stimulus": 1, "trial": 71, "rt": 682, "response": "Beta"}, "70": {"stimulus": 28, "trial": 70, "rt": 411, "response": "Alpha"}, "59": {"stimulus": 66, "trial": 59, "rt": 401, "response": "Alpha"}, "79": {"stimulus": 33, "trial": 79, "rt": 754, "response": "Alpha"}, "58": {"stimulus": 21, "trial": 58, "rt": 491, "response": "Alpha"}, "11": {"stimulus": 10, "trial": 11, "rt": 1656, "response": "Alpha"}, "10": {"stimulus": 22, "trial": 10, "rt": 1371, "response": "Alpha"}, "13": {"stimulus": 31, "trial": 13, "rt": 1171, "response": "Alpha"}, "12": {"stimulus": 51, "trial": 12, "rt": 1270, "response": "Beta"}, "15": {"stimulus": 69, "trial": 15, "rt": 674, "response": "Beta"}, "14": {"stimulus": 70, "trial": 14, "rt": 935, "response": "Beta"}, "17": {"stimulus": 48, "trial": 17, "rt": 5011, "response": "Alpha"}, "16": {"stimulus": 13, "trial": 16, "rt": 1574, "response": "Alpha"}, "19": {"stimulus": 37, "trial": 19, "rt": 1149, "response": "Alpha"}, "18": {"stimulus": 80, "trial": 18, "rt": 754, "response": "Beta"}, "31": {"stimulus": 47, "trial": 31, "rt": 593, "response": "Alpha"}, "30": {"stimulus": 58, "trial": 30, "rt": 713, "response": "Alpha"}, "37": {"stimulus": 61, "trial": 37, "rt": 1435, "response": "Alpha"}, "36": {"stimulus": 35, "trial": 36, "rt": 1199, "response": "Alpha"}, "35": {"stimulus": 71, "trial": 35, "rt": 915, "response": "Alpha"}, "34": {"stimulus": 11, "trial": 34, "rt": 573, "response": "Beta"}, "33": {"stimulus": 64, "trial": 33, "rt": 562, "response": "Beta"}, "55": {"stimulus": 25, "trial": 55, "rt": 431, "response": "Alpha"}, "74": {"stimulus": 67, "trial": 74, "rt": 997, "response": "Alpha"}, "32": {"stimulus": 74, "trial": 32, "rt": 552, "response": "Alpha"}, "57": {"stimulus": 73, "trial": 57, "rt": 713, "response": "Alpha"}, "50": {"stimulus": 9, "trial": 50, "rt": 825, "response": "Beta"}}}