{"generation": {"1": {"stimulus": 0, "trial": 1, "rt": 6504}, "0": {"stimulus": 72, "trial": 0, "rt": 9441}, "3": {"stimulus": 80, "trial": 3, "rt": 6843}, "2": {"stimulus": 79, "trial": 2, "rt": 9534}}, "info": {"finish": 1482174706988, "participant": 58, "exposed": true, "lab": false, "start": 1482174539385, "counterbalance": 4, "condition": "Bottom", "browser": {"platform": "MacIntel", "userAgent": "Mozilla/5.0 (Macintosh; Intel Mac OS X 10_11_6) AppleWebKit/537.36 (KHTML, like Gecko) Chrome/55.0.2883.95 Safari/537.36"}}, "experiment": {"Paradigm": "TACL", "Stimuli": "Size-Color Squares", "Experiment": "Generating-Categories"}, "observation": {"11": {"stimulus": 12, "trial": 11, "rt": 871}, "10": {"stimulus": 30, "trial": 10, "rt": 3856}, "1": {"stimulus": 12, "trial": 1, "rt": 1011}, "0": {"stimulus": 30, "trial": 0, "rt": 1979}, "3": {"stimulus": 14, "trial": 3, "rt": 903}, "2": {"stimulus": 32, "trial": 2, "rt": 1016}, "5": {"stimulus": 12, "trial": 5, "rt": 3035}, "4": {"stimulus": 14, "trial": 4, "rt": 858}, "7": {"stimulus": 32, "trial": 7, "rt": 865}, "6": {"stimulus": 30, "trial": 6, "rt": 1259}, "9": {"stimulus": 32, "trial": 9, "rt": 1235}, "8": {"stimulus": 14, "trial": 8, "rt": 918}}, "generalization": {"56": {"stimulus": 51, "trial": 56, "rt": 240, "response": "Beta"}, "77": {"stimulus": 5, "trial": 77, "rt": 211, "response": "Beta"}, "54": {"stimulus": 39, "trial": 54, "rt": 367, "response": "Beta"}, "42": {"stimulus": 1, "trial": 42, "rt": 365, "response": "Beta"}, "48": {"stimulus": 20, "trial": 48, "rt": 376, "response": "Alpha"}, "43": {"stimulus": 58, "trial": 43, "rt": 424, "response": "Beta"}, "60": {"stimulus": 10, "trial": 60, "rt": 396, "response": "Beta"}, "61": {"stimulus": 68, "trial": 61, "rt": 391, "response": "Beta"}, "62": {"stimulus": 71, "trial": 62, "rt": 357, "response": "Alpha"}, "63": {"stimulus": 77, "trial": 63, "rt": 281, "response": "Beta"}, "64": {"stimulus": 33, "trial": 64, "rt": 953, "response": "Alpha"}, "49": {"stimulus": 15, "trial": 49, "rt": 361, "response": "Alpha"}, "66": {"stimulus": 17, "trial": 66, "rt": 391, "response": "Beta"}, "67": {"stimulus": 24, "trial": 67, "rt": 378, "response": "Alpha"}, "68": {"stimulus": 48, "trial": 68, "rt": 549, "response": "Beta"}, "69": {"stimulus": 57, "trial": 69, "rt": 398, "response": "Beta"}, "80": {"stimulus": 27, "trial": 80, "rt": 804, "response": "Beta"}, "52": {"stimulus": 66, "trial": 52, "rt": 379, "response": "Beta"}, "53": {"stimulus": 42, "trial": 53, "rt": 390, "response": "Beta"}, "24": {"stimulus": 60, "trial": 24, "rt": 387, "response": "Beta"}, "25": {"stimulus": 50, "trial": 25, "rt": 347, "response": "Beta"}, "26": {"stimulus": 11, "trial": 26, "rt": 269, "response": "Beta"}, "27": {"stimulus": 21, "trial": 27, "rt": 332, "response": "Beta"}, "20": {"stimulus": 12, "trial": 20, "rt": 399, "response": "Beta"}, "21": {"stimulus": 79, "trial": 21, "rt": 424, "response": "Beta"}, "22": {"stimulus": 29, "trial": 22, "rt": 399, "response": "Beta"}, "23": {"stimulus": 14, "trial": 23, "rt": 402, "response": "Beta"}, "46": {"stimulus": 25, "trial": 46, "rt": 7057, "response": "Beta"}, "47": {"stimulus": 0, "trial": 47, "rt": 6125, "response": "Alpha"}, "44": {"stimulus": 40, "trial": 44, "rt": 486, "response": "Beta"}, "45": {"stimulus": 4, "trial": 45, "rt": 418, "response": "Alpha"}, "28": {"stimulus": 18, "trial": 28, "rt": 738, "response": "Beta"}, "29": {"stimulus": 65, "trial": 29, "rt": 308, "response": "Beta"}, "40": {"stimulus": 35, "trial": 40, "rt": 294, "response": "Beta"}, "41": {"stimulus": 38, "trial": 41, "rt": 1672, "response": "Alpha"}, "1": {"stimulus": 26, "trial": 1, "rt": 446, "response": "Beta"}, "0": {"stimulus": 78, "trial": 0, "rt": 1610, "response": "Beta"}, "3": {"stimulus": 7, "trial": 3, "rt": 544, "response": "Beta"}, "2": {"stimulus": 67, "trial": 2, "rt": 581, "response": "Beta"}, "5": {"stimulus": 76, "trial": 5, "rt": 367, "response": "Beta"}, "4": {"stimulus": 8, "trial": 4, "rt": 398, "response": "Beta"}, "7": {"stimulus": 45, "trial": 7, "rt": 383, "response": "Beta"}, "6": {"stimulus": 62, "trial": 6, "rt": 418, "response": "Beta"}, "9": {"stimulus": 19, "trial": 9, "rt": 371, "response": "Beta"}, "8": {"stimulus": 44, "trial": 8, "rt": 477, "response": "Beta"}, "78": {"stimulus": 52, "trial": 78, "rt": 830, "response": "Beta"}, "51": {"stimulus": 63, "trial": 51, "rt": 646, "response": "Alpha"}, "39": {"stimulus": 36, "trial": 39, "rt": 312, "response": "Beta"}, "65": {"stimulus": 64, "trial": 65, "rt": 362, "response": "Alpha"}, "76": {"stimulus": 22, "trial": 76, "rt": 219, "response": "Beta"}, "75": {"stimulus": 28, "trial": 75, "rt": 554, "response": "Beta"}, "38": {"stimulus": 23, "trial": 38, "rt": 399, "response": "Alpha"}, "73": {"stimulus": 49, "trial": 73, "rt": 384, "response": "Beta"}, "72": {"stimulus": 3, "trial": 72, "rt": 439, "response": "Beta"}, "71": {"stimulus": 75, "trial": 71, "rt": 350, "response": "Beta"}, "70": {"stimulus": 73, "trial": 70, "rt": 371, "response": "Beta"}, "59": {"stimulus": 69, "trial": 59, "rt": 277, "response": "Beta"}, "79": {"stimulus": 53, "trial": 79, "rt": 456, "response": "Beta"}, "58": {"stimulus": 32, "trial": 58, "rt": 413, "response": "Beta"}, "11": {"stimulus": 43, "trial": 11, "rt": 334, "response": "Beta"}, "10": {"stimulus": 30, "trial": 10, "rt": 344, "response": "Beta"}, "13": {"stimulus": 46, "trial": 13, "rt": 432, "response": "Beta"}, "12": {"stimulus": 41, "trial": 12, "rt": 379, "response": "Beta"}, "15": {"stimulus": 34, "trial": 15, "rt": 341, "response": "Beta"}, "14": {"stimulus": 55, "trial": 14, "rt": 373, "response": "Beta"}, "17": {"stimulus": 37, "trial": 17, "rt": 5422, "response": "Beta"}, "16": {"stimulus": 74, "trial": 16, "rt": 335, "response": "Beta"}, "19": {"stimulus": 72, "trial": 19, "rt": 303, "response": "Beta"}, "18": {"stimulus": 13, "trial": 18, "rt": 424, "response": "Beta"}, "31": {"stimulus": 6, "trial": 31, "rt": 334, "response": "Beta"}, "30": {"stimulus": 47, "trial": 30, "rt": 323, "response": "Beta"}, "37": {"stimulus": 56, "trial": 37, "rt": 336, "response": "Beta"}, "36": {"stimulus": 16, "trial": 36, "rt": 1026, "response": "Alpha"}, "35": {"stimulus": 59, "trial": 35, "rt": 398, "response": "Beta"}, "34": {"stimulus": 54, "trial": 34, "rt": 359, "response": "Beta"}, "33": {"stimulus": 61, "trial": 33, "rt": 447, "response": "Beta"}, "55": {"stimulus": 9, "trial": 55, "rt": 433, "response": "Beta"}, "74": {"stimulus": 31, "trial": 74, "rt": 396, "response": "Beta"}, "32": {"stimulus": 2, "trial": 32, "rt": 297, "response": "Beta"}, "57": {"stimulus": 70, "trial": 57, "rt": 388, "response": "Beta"}, "50": {"stimulus": 80, "trial": 50, "rt": 348, "response": "Alpha"}}}