{"generation": {"1": {"stimulus": 79, "trial": 1, "rt": 5851}, "0": {"stimulus": 8, "trial": 0, "rt": 12028}, "3": {"stimulus": 70, "trial": 3, "rt": 4299}, "2": {"stimulus": 17, "trial": 2, "rt": 5675}}, "info": {"finish": 1482174750422, "participant": 6, "exposed": true, "lab": false, "start": 1482174401434, "counterbalance": 3, "condition": "Middle", "browser": {"platform": "Win32", "userAgent": "Mozilla/5.0 (Windows NT 6.3; Win64; x64) AppleWebKit/537.36 (KHTML, like Gecko) Chrome/55.0.2883.87 Safari/537.36"}}, "experiment": {"Paradigm": "TACL", "Stimuli": "Size-Color Squares", "Experiment": "Generating-Categories"}, "observation": {"11": {"stimulus": 30, "trial": 11, "rt": 829}, "10": {"stimulus": 48, "trial": 10, "rt": 797}, "1": {"stimulus": 48, "trial": 1, "rt": 1068}, "0": {"stimulus": 32, "trial": 0, "rt": 1546}, "3": {"stimulus": 30, "trial": 3, "rt": 936}, "2": {"stimulus": 50, "trial": 2, "rt": 1145}, "5": {"stimulus": 50, "trial": 5, "rt": 943}, "4": {"stimulus": 30, "trial": 4, "rt": 809}, "7": {"stimulus": 32, "trial": 7, "rt": 745}, "6": {"stimulus": 48, "trial": 6, "rt": 832}, "9": {"stimulus": 50, "trial": 9, "rt": 1021}, "8": {"stimulus": 32, "trial": 8, "rt": 771}}, "generalization": {"56": {"stimulus": 60, "trial": 56, "rt": 1068, "response": "Alpha"}, "77": {"stimulus": 15, "trial": 77, "rt": 840, "response": "Beta"}, "54": {"stimulus": 43, "trial": 54, "rt": 862, "response": "Alpha"}, "42": {"stimulus": 44, "trial": 42, "rt": 28603, "response": "Alpha"}, "48": {"stimulus": 11, "trial": 48, "rt": 1254, "response": "Beta"}, "43": {"stimulus": 17, "trial": 43, "rt": 849, "response": "Beta"}, "60": {"stimulus": 79, "trial": 60, "rt": 880, "response": "Beta"}, "61": {"stimulus": 28, "trial": 61, "rt": 716, "response": "Alpha"}, "62": {"stimulus": 38, "trial": 62, "rt": 866, "response": "Alpha"}, "63": {"stimulus": 68, "trial": 63, "rt": 927, "response": "Beta"}, "64": {"stimulus": 30, "trial": 64, "rt": 896, "response": "Alpha"}, "49": {"stimulus": 31, "trial": 49, "rt": 565, "response": "Alpha"}, "66": {"stimulus": 19, "trial": 66, "rt": 1569, "response": "Alpha"}, "67": {"stimulus": 59, "trial": 67, "rt": 881, "response": "Alpha"}, "68": {"stimulus": 80, "trial": 68, "rt": 788, "response": "Beta"}, "69": {"stimulus": 9, "trial": 69, "rt": 1023, "response": "Beta"}, "80": {"stimulus": 20, "trial": 80, "rt": 860, "response": "Beta"}, "52": {"stimulus": 0, "trial": 52, "rt": 704, "response": "Beta"}, "53": {"stimulus": 1, "trial": 53, "rt": 626, "response": "Beta"}, "24": {"stimulus": 72, "trial": 24, "rt": 682, "response": "Beta"}, "25": {"stimulus": 12, "trial": 25, "rt": 1784, "response": "Alpha"}, "26": {"stimulus": 16, "trial": 26, "rt": 925, "response": "Beta"}, "27": {"stimulus": 47, "trial": 27, "rt": 1327, "response": "Beta"}, "20": {"stimulus": 24, "trial": 20, "rt": 523, "response": "Alpha"}, "21": {"stimulus": 2, "trial": 21, "rt": 919, "response": "Beta"}, "22": {"stimulus": 33, "trial": 22, "rt": 961, "response": "Alpha"}, "23": {"stimulus": 27, "trial": 23, "rt": 1143, "response": "Beta"}, "46": {"stimulus": 76, "trial": 46, "rt": 570, "response": "Beta"}, "47": {"stimulus": 65, "trial": 47, "rt": 577, "response": "Beta"}, "44": {"stimulus": 57, "trial": 44, "rt": 916, "response": "Alpha"}, "45": {"stimulus": 64, "trial": 45, "rt": 854, "response": "Beta"}, "28": {"stimulus": 22, "trial": 28, "rt": 894, "response": "Alpha"}, "29": {"stimulus": 69, "trial": 29, "rt": 1528, "response": "Beta"}, "40": {"stimulus": 71, "trial": 40, "rt": 862, "response": "Beta"}, "41": {"stimulus": 39, "trial": 41, "rt": 1036, "response": "Alpha"}, "1": {"stimulus": 74, "trial": 1, "rt": 1989, "response": "Beta"}, "0": {"stimulus": 4, "trial": 0, "rt": 3128, "response": "Alpha"}, "3": {"stimulus": 10, "trial": 3, "rt": 886, "response": "Beta"}, "2": {"stimulus": 18, "trial": 2, "rt": 2236, "response": "Alpha"}, "5": {"stimulus": 14, "trial": 5, "rt": 992, "response": "Beta"}, "4": {"stimulus": 25, "trial": 4, "rt": 2222, "response": "Beta"}, "7": {"stimulus": 49, "trial": 7, "rt": 568, "response": "Alpha"}, "6": {"stimulus": 58, "trial": 6, "rt": 1875, "response": "Alpha"}, "9": {"stimulus": 45, "trial": 9, "rt": 916, "response": "Beta"}, "8": {"stimulus": 35, "trial": 8, "rt": 777, "response": "Beta"}, "78": {"stimulus": 73, "trial": 78, "rt": 831, "response": "Beta"}, "51": {"stimulus": 56, "trial": 51, "rt": 1511, "response": "Alpha"}, "39": {"stimulus": 52, "trial": 39, "rt": 650, "response": "Alpha"}, "65": {"stimulus": 70, "trial": 65, "rt": 876, "response": "Beta"}, "76": {"stimulus": 6, "trial": 76, "rt": 786, "response": "Alpha"}, "75": {"stimulus": 67, "trial": 75, "rt": 663, "response": "Beta"}, "38": {"stimulus": 13, "trial": 38, "rt": 724, "response": "Beta"}, "73": {"stimulus": 46, "trial": 73, "rt": 783, "response": "Beta"}, "72": {"stimulus": 51, "trial": 72, "rt": 975, "response": "Alpha"}, "71": {"stimulus": 61, "trial": 71, "rt": 969, "response": "Alpha"}, "70": {"stimulus": 63, "trial": 70, "rt": 709, "response": "Beta"}, "59": {"stimulus": 54, "trial": 59, "rt": 1419, "response": "Beta"}, "79": {"stimulus": 37, "trial": 79, "rt": 741, "response": "Alpha"}, "58": {"stimulus": 3, "trial": 58, "rt": 1499, "response": "Beta"}, "11": {"stimulus": 23, "trial": 11, "rt": 786, "response": "Alpha"}, "10": {"stimulus": 55, "trial": 10, "rt": 1156, "response": "Beta"}, "13": {"stimulus": 26, "trial": 13, "rt": 1024, "response": "Beta"}, "12": {"stimulus": 77, "trial": 12, "rt": 866, "response": "Beta"}, "15": {"stimulus": 42, "trial": 15, "rt": 813, "response": "Alpha"}, "14": {"stimulus": 7, "trial": 14, "rt": 954, "response": "Beta"}, "17": {"stimulus": 53, "trial": 17, "rt": 822, "response": "Beta"}, "16": {"stimulus": 41, "trial": 16, "rt": 769, "response": "Alpha"}, "19": {"stimulus": 8, "trial": 19, "rt": 1186, "response": "Beta"}, "18": {"stimulus": 78, "trial": 18, "rt": 710, "response": "Beta"}, "31": {"stimulus": 29, "trial": 31, "rt": 2623, "response": "Beta"}, "30": {"stimulus": 50, "trial": 30, "rt": 1246, "response": "Beta"}, "37": {"stimulus": 5, "trial": 37, "rt": 623, "response": "Beta"}, "36": {"stimulus": 75, "trial": 36, "rt": 506, "response": "Beta"}, "35": {"stimulus": 40, "trial": 35, "rt": 793, "response": "Alpha"}, "34": {"stimulus": 48, "trial": 34, "rt": 1486, "response": "Alpha"}, "33": {"stimulus": 34, "trial": 33, "rt": 954, "response": "Alpha"}, "55": {"stimulus": 62, "trial": 55, "rt": 1300, "response": "Beta"}, "74": {"stimulus": 66, "trial": 74, "rt": 605, "response": "Beta"}, "32": {"stimulus": 21, "trial": 32, "rt": 794, "response": "Beta"}, "57": {"stimulus": 36, "trial": 57, "rt": 875, "response": "Beta"}, "50": {"stimulus": 32, "trial": 50, "rt": 814, "response": "Alpha"}}}