{"generation": {"1": {"stimulus": 72, "trial": 1, "rt": 28040}, "0": {"stimulus": 80, "trial": 0, "rt": 32291}, "3": {"stimulus": 78, "trial": 3, "rt": 11691}, "2": {"stimulus": 77, "trial": 2, "rt": 6349}}, "info": {"finish": 1482174860953, "participant": 60, "exposed": true, "lab": false, "start": 1482174547771, "counterbalance": 2, "condition": "Bottom", "browser": {"platform": "Linux x86_64", "userAgent": "Mozilla/5.0 (X11; Ubuntu; Linux x86_64; rv:50.0) Gecko/20100101 Firefox/50.0"}}, "experiment": {"Paradigm": "TACL", "Stimuli": "Size-Color Squares", "Experiment": "Generating-Categories"}, "observation": {"11": {"stimulus": 30, "trial": 11, "rt": 1291}, "10": {"stimulus": 12, "trial": 10, "rt": 1268}, "1": {"stimulus": 30, "trial": 1, "rt": 2486}, "0": {"stimulus": 14, "trial": 0, "rt": 3032}, "3": {"stimulus": 12, "trial": 3, "rt": 2138}, "2": {"stimulus": 32, "trial": 2, "rt": 1494}, "5": {"stimulus": 32, "trial": 5, "rt": 1441}, "4": {"stimulus": 30, "trial": 4, "rt": 2185}, "7": {"stimulus": 14, "trial": 7, "rt": 1435}, "6": {"stimulus": 12, "trial": 6, "rt": 1639}, "9": {"stimulus": 32, "trial": 9, "rt": 1075}, "8": {"stimulus": 14, "trial": 8, "rt": 1443}}, "generalization": {"56": {"stimulus": 78, "trial": 56, "rt": 936, "response": "Beta"}, "77": {"stimulus": 62, "trial": 77, "rt": 1536, "response": "Beta"}, "54": {"stimulus": 21, "trial": 54, "rt": 2251, "response": "Alpha"}, "42": {"stimulus": 16, "trial": 42, "rt": 1135, "response": "Alpha"}, "48": {"stimulus": 64, "trial": 48, "rt": 1756, "response": "Beta"}, "43": {"stimulus": 29, "trial": 43, "rt": 769, "response": "Alpha"}, "60": {"stimulus": 46, "trial": 60, "rt": 1491, "response": "Alpha"}, "61": {"stimulus": 13, "trial": 61, "rt": 1618, "response": "Alpha"}, "62": {"stimulus": 28, "trial": 62, "rt": 843, "response": "Alpha"}, "63": {"stimulus": 55, "trial": 63, "rt": 1475, "response": "Beta"}, "64": {"stimulus": 69, "trial": 64, "rt": 891, "response": "Beta"}, "49": {"stimulus": 39, "trial": 49, "rt": 1538, "response": "Alpha"}, "66": {"stimulus": 72, "trial": 66, "rt": 907, "response": "Beta"}, "67": {"stimulus": 53, "trial": 67, "rt": 1337, "response": "Alpha"}, "68": {"stimulus": 4, "trial": 68, "rt": 691, "response": "Alpha"}, "69": {"stimulus": 31, "trial": 69, "rt": 923, "response": "Alpha"}, "80": {"stimulus": 42, "trial": 80, "rt": 642, "response": "Alpha"}, "52": {"stimulus": 11, "trial": 52, "rt": 763, "response": "Alpha"}, "53": {"stimulus": 35, "trial": 53, "rt": 1538, "response": "Alpha"}, "24": {"stimulus": 7, "trial": 24, "rt": 1298, "response": "Alpha"}, "25": {"stimulus": 2, "trial": 25, "rt": 2171, "response": "Alpha"}, "26": {"stimulus": 24, "trial": 26, "rt": 830, "response": "Alpha"}, "27": {"stimulus": 57, "trial": 27, "rt": 1408, "response": "Beta"}, "20": {"stimulus": 3, "trial": 20, "rt": 1531, "response": "Alpha"}, "21": {"stimulus": 68, "trial": 21, "rt": 1487, "response": "Beta"}, "22": {"stimulus": 20, "trial": 22, "rt": 1035, "response": "Alpha"}, "23": {"stimulus": 63, "trial": 23, "rt": 3199, "response": "Beta"}, "46": {"stimulus": 32, "trial": 46, "rt": 635, "response": "Alpha"}, "47": {"stimulus": 1, "trial": 47, "rt": 788, "response": "Alpha"}, "44": {"stimulus": 40, "trial": 44, "rt": 779, "response": "Alpha"}, "45": {"stimulus": 41, "trial": 45, "rt": 667, "response": "Alpha"}, "28": {"stimulus": 52, "trial": 28, "rt": 1731, "response": "Beta"}, "29": {"stimulus": 10, "trial": 29, "rt": 988, "response": "Alpha"}, "40": {"stimulus": 71, "trial": 40, "rt": 1051, "response": "Beta"}, "41": {"stimulus": 79, "trial": 41, "rt": 945, "response": "Beta"}, "1": {"stimulus": 58, "trial": 1, "rt": 1648, "response": "Alpha"}, "0": {"stimulus": 5, "trial": 0, "rt": 1536, "response": "Alpha"}, "3": {"stimulus": 47, "trial": 3, "rt": 1859, "response": "Alpha"}, "2": {"stimulus": 51, "trial": 2, "rt": 1218, "response": "Alpha"}, "5": {"stimulus": 9, "trial": 5, "rt": 1099, "response": "Alpha"}, "4": {"stimulus": 66, "trial": 4, "rt": 2611, "response": "Beta"}, "7": {"stimulus": 45, "trial": 7, "rt": 756, "response": "Alpha"}, "6": {"stimulus": 36, "trial": 6, "rt": 1010, "response": "Alpha"}, "9": {"stimulus": 76, "trial": 9, "rt": 1347, "response": "Beta"}, "8": {"stimulus": 26, "trial": 8, "rt": 2938, "response": "Beta"}, "78": {"stimulus": 65, "trial": 78, "rt": 750, "response": "Beta"}, "51": {"stimulus": 50, "trial": 51, "rt": 1111, "response": "Alpha"}, "39": {"stimulus": 6, "trial": 39, "rt": 1021, "response": "Alpha"}, "65": {"stimulus": 80, "trial": 65, "rt": 587, "response": "Beta"}, "76": {"stimulus": 15, "trial": 76, "rt": 467, "response": "Alpha"}, "75": {"stimulus": 17, "trial": 75, "rt": 963, "response": "Alpha"}, "38": {"stimulus": 60, "trial": 38, "rt": 1291, "response": "Beta"}, "73": {"stimulus": 49, "trial": 73, "rt": 3068, "response": "Beta"}, "72": {"stimulus": 59, "trial": 72, "rt": 2105, "response": "Beta"}, "71": {"stimulus": 30, "trial": 71, "rt": 1116, "response": "Alpha"}, "70": {"stimulus": 73, "trial": 70, "rt": 1315, "response": "Beta"}, "59": {"stimulus": 0, "trial": 59, "rt": 941, "response": "Alpha"}, "79": {"stimulus": 44, "trial": 79, "rt": 1588, "response": "Alpha"}, "58": {"stimulus": 75, "trial": 58, "rt": 1195, "response": "Beta"}, "11": {"stimulus": 27, "trial": 11, "rt": 1311, "response": "Alpha"}, "10": {"stimulus": 54, "trial": 10, "rt": 2215, "response": "Alpha"}, "13": {"stimulus": 74, "trial": 13, "rt": 2687, "response": "Beta"}, "12": {"stimulus": 37, "trial": 12, "rt": 1115, "response": "Alpha"}, "15": {"stimulus": 61, "trial": 15, "rt": 1627, "response": "Beta"}, "14": {"stimulus": 77, "trial": 14, "rt": 904, "response": "Beta"}, "17": {"stimulus": 25, "trial": 17, "rt": 2189, "response": "Alpha"}, "16": {"stimulus": 14, "trial": 16, "rt": 1707, "response": "Alpha"}, "19": {"stimulus": 67, "trial": 19, "rt": 1187, "response": "Beta"}, "18": {"stimulus": 56, "trial": 18, "rt": 1411, "response": "Beta"}, "31": {"stimulus": 22, "trial": 31, "rt": 868, "response": "Alpha"}, "30": {"stimulus": 19, "trial": 30, "rt": 1035, "response": "Alpha"}, "37": {"stimulus": 23, "trial": 37, "rt": 1011, "response": "Alpha"}, "36": {"stimulus": 18, "trial": 36, "rt": 1033, "response": "Alpha"}, "35": {"stimulus": 70, "trial": 35, "rt": 1091, "response": "Beta"}, "34": {"stimulus": 38, "trial": 34, "rt": 976, "response": "Alpha"}, "33": {"stimulus": 48, "trial": 33, "rt": 2423, "response": "Alpha"}, "55": {"stimulus": 43, "trial": 55, "rt": 1142, "response": "Alpha"}, "74": {"stimulus": 8, "trial": 74, "rt": 962, "response": "Alpha"}, "32": {"stimulus": 12, "trial": 32, "rt": 803, "response": "Alpha"}, "57": {"stimulus": 33, "trial": 57, "rt": 1155, "response": "Alpha"}, "50": {"stimulus": 34, "trial": 50, "rt": 2006, "response": "Alpha"}}}