{"generation": {"1": {"stimulus": 73, "trial": 1, "rt": 12328}, "0": {"stimulus": 72, "trial": 0, "rt": 11926}, "3": {"stimulus": 64, "trial": 3, "rt": 5769}, "2": {"stimulus": 63, "trial": 2, "rt": 6224}}, "info": {"finish": 1482174818810, "participant": 62, "exposed": true, "lab": false, "start": 1482174564008, "counterbalance": 7, "condition": "Middle", "browser": {"platform": "Win32", "userAgent": "Mozilla/5.0 (Windows NT 10.0; Win64; x64) AppleWebKit/537.36 (KHTML, like Gecko) Chrome/55.0.2883.87 Safari/537.36"}}, "experiment": {"Paradigm": "TACL", "Stimuli": "Size-Color Squares", "Experiment": "Generating-Categories"}, "observation": {"11": {"stimulus": 30, "trial": 11, "rt": 1066}, "10": {"stimulus": 32, "trial": 10, "rt": 1023}, "1": {"stimulus": 50, "trial": 1, "rt": 1546}, "0": {"stimulus": 48, "trial": 0, "rt": 1865}, "3": {"stimulus": 32, "trial": 3, "rt": 1163}, "2": {"stimulus": 30, "trial": 2, "rt": 2430}, "5": {"stimulus": 48, "trial": 5, "rt": 1034}, "4": {"stimulus": 50, "trial": 4, "rt": 1263}, "7": {"stimulus": 32, "trial": 7, "rt": 1101}, "6": {"stimulus": 30, "trial": 6, "rt": 1014}, "9": {"stimulus": 48, "trial": 9, "rt": 1148}, "8": {"stimulus": 50, "trial": 8, "rt": 996}}, "generalization": {"56": {"stimulus": 80, "trial": 56, "rt": 681, "response": "Alpha"}, "77": {"stimulus": 72, "trial": 77, "rt": 1149, "response": "Beta"}, "54": {"stimulus": 60, "trial": 54, "rt": 989, "response": "Alpha"}, "42": {"stimulus": 38, "trial": 42, "rt": 2015, "response": "Beta"}, "48": {"stimulus": 59, "trial": 48, "rt": 1006, "response": "Alpha"}, "43": {"stimulus": 42, "trial": 43, "rt": 731, "response": "Alpha"}, "60": {"stimulus": 61, "trial": 60, "rt": 770, "response": "Alpha"}, "61": {"stimulus": 62, "trial": 61, "rt": 571, "response": "Alpha"}, "62": {"stimulus": 48, "trial": 62, "rt": 990, "response": "Alpha"}, "63": {"stimulus": 68, "trial": 63, "rt": 1070, "response": "Alpha"}, "64": {"stimulus": 36, "trial": 64, "rt": 1014, "response": "Alpha"}, "49": {"stimulus": 15, "trial": 49, "rt": 739, "response": "Alpha"}, "66": {"stimulus": 63, "trial": 66, "rt": 972, "response": "Beta"}, "67": {"stimulus": 40, "trial": 67, "rt": 780, "response": "Alpha"}, "68": {"stimulus": 45, "trial": 68, "rt": 2067, "response": "Alpha"}, "69": {"stimulus": 13, "trial": 69, "rt": 836, "response": "Alpha"}, "80": {"stimulus": 49, "trial": 80, "rt": 1748, "response": "Beta"}, "52": {"stimulus": 16, "trial": 52, "rt": 636, "response": "Alpha"}, "53": {"stimulus": 10, "trial": 53, "rt": 909, "response": "Alpha"}, "24": {"stimulus": 30, "trial": 24, "rt": 2024, "response": "Alpha"}, "25": {"stimulus": 20, "trial": 25, "rt": 2886, "response": "Alpha"}, "26": {"stimulus": 21, "trial": 26, "rt": 1138, "response": "Alpha"}, "27": {"stimulus": 2, "trial": 27, "rt": 1096, "response": "Alpha"}, "20": {"stimulus": 79, "trial": 20, "rt": 912, "response": "Alpha"}, "21": {"stimulus": 31, "trial": 21, "rt": 2622, "response": "Alpha"}, "22": {"stimulus": 75, "trial": 22, "rt": 882, "response": "Beta"}, "23": {"stimulus": 44, "trial": 23, "rt": 980, "response": "Alpha"}, "46": {"stimulus": 52, "trial": 46, "rt": 1182, "response": "Alpha"}, "47": {"stimulus": 50, "trial": 47, "rt": 1125, "response": "Alpha"}, "44": {"stimulus": 8, "trial": 44, "rt": 756, "response": "Alpha"}, "45": {"stimulus": 4, "trial": 45, "rt": 822, "response": "Alpha"}, "28": {"stimulus": 46, "trial": 28, "rt": 953, "response": "Beta"}, "29": {"stimulus": 22, "trial": 29, "rt": 1119, "response": "Alpha"}, "40": {"stimulus": 6, "trial": 40, "rt": 1113, "response": "Alpha"}, "41": {"stimulus": 18, "trial": 41, "rt": 1103, "response": "Alpha"}, "1": {"stimulus": 28, "trial": 1, "rt": 1108, "response": "Beta"}, "0": {"stimulus": 26, "trial": 0, "rt": 1492, "response": "Alpha"}, "3": {"stimulus": 5, "trial": 3, "rt": 834, "response": "Alpha"}, "2": {"stimulus": 65, "trial": 2, "rt": 23021, "response": "Beta"}, "5": {"stimulus": 71, "trial": 5, "rt": 3284, "response": "Alpha"}, "4": {"stimulus": 57, "trial": 4, "rt": 2475, "response": "Beta"}, "7": {"stimulus": 54, "trial": 7, "rt": 798, "response": "Beta"}, "6": {"stimulus": 76, "trial": 6, "rt": 1344, "response": "Beta"}, "9": {"stimulus": 70, "trial": 9, "rt": 854, "response": "Alpha"}, "8": {"stimulus": 73, "trial": 8, "rt": 940, "response": "Beta"}, "78": {"stimulus": 33, "trial": 78, "rt": 658, "response": "Alpha"}, "51": {"stimulus": 47, "trial": 51, "rt": 12459, "response": "Alpha"}, "39": {"stimulus": 27, "trial": 39, "rt": 1275, "response": "Alpha"}, "65": {"stimulus": 29, "trial": 65, "rt": 617, "response": "Alpha"}, "76": {"stimulus": 35, "trial": 76, "rt": 783, "response": "Alpha"}, "75": {"stimulus": 3, "trial": 75, "rt": 724, "response": "Alpha"}, "38": {"stimulus": 0, "trial": 38, "rt": 1411, "response": "Alpha"}, "73": {"stimulus": 56, "trial": 73, "rt": 918, "response": "Beta"}, "72": {"stimulus": 25, "trial": 72, "rt": 713, "response": "Alpha"}, "71": {"stimulus": 55, "trial": 71, "rt": 2362, "response": "Beta"}, "70": {"stimulus": 69, "trial": 70, "rt": 850, "response": "Alpha"}, "59": {"stimulus": 67, "trial": 59, "rt": 4249, "response": "Beta"}, "79": {"stimulus": 9, "trial": 79, "rt": 1011, "response": "Alpha"}, "58": {"stimulus": 74, "trial": 58, "rt": 861, "response": "Beta"}, "11": {"stimulus": 51, "trial": 11, "rt": 945, "response": "Alpha"}, "10": {"stimulus": 12, "trial": 10, "rt": 7021, "response": "Alpha"}, "13": {"stimulus": 11, "trial": 13, "rt": 2944, "response": "Alpha"}, "12": {"stimulus": 14, "trial": 12, "rt": 866, "response": "Alpha"}, "15": {"stimulus": 32, "trial": 15, "rt": 1007, "response": "Alpha"}, "14": {"stimulus": 58, "trial": 14, "rt": 4819, "response": "Beta"}, "17": {"stimulus": 41, "trial": 17, "rt": 820, "response": "Alpha"}, "16": {"stimulus": 39, "trial": 16, "rt": 906, "response": "Beta"}, "19": {"stimulus": 66, "trial": 19, "rt": 590, "response": "Beta"}, "18": {"stimulus": 64, "trial": 18, "rt": 887, "response": "Beta"}, "31": {"stimulus": 77, "trial": 31, "rt": 818, "response": "Alpha"}, "30": {"stimulus": 43, "trial": 30, "rt": 638, "response": "Alpha"}, "37": {"stimulus": 78, "trial": 37, "rt": 1370, "response": "Alpha"}, "36": {"stimulus": 1, "trial": 36, "rt": 1267, "response": "Alpha"}, "35": {"stimulus": 17, "trial": 35, "rt": 1125, "response": "Alpha"}, "34": {"stimulus": 53, "trial": 34, "rt": 1154, "response": "Alpha"}, "33": {"stimulus": 23, "trial": 33, "rt": 770, "response": "Alpha"}, "55": {"stimulus": 24, "trial": 55, "rt": 508, "response": "Alpha"}, "74": {"stimulus": 7, "trial": 74, "rt": 655, "response": "Alpha"}, "32": {"stimulus": 34, "trial": 32, "rt": 692, "response": "Alpha"}, "57": {"stimulus": 37, "trial": 57, "rt": 1090, "response": "Alpha"}, "50": {"stimulus": 19, "trial": 50, "rt": 1022, "response": "Alpha"}}}