{"generation": {"1": {"stimulus": 38, "trial": 1, "rt": 4713}, "0": {"stimulus": 43, "trial": 0, "rt": 11480}, "3": {"stimulus": 9, "trial": 3, "rt": 12101}, "2": {"stimulus": 20, "trial": 2, "rt": 7431}}, "info": {"finish": 1482175012338, "participant": 63, "exposed": true, "lab": false, "start": 1482174593659, "counterbalance": 5, "condition": "Bottom", "browser": {"platform": "Win32", "userAgent": "Mozilla/5.0 (Windows NT 10.0; WOW64) AppleWebKit/537.36 (KHTML, like Gecko) Chrome/55.0.2883.87 Safari/537.36"}}, "experiment": {"Paradigm": "TACL", "Stimuli": "Size-Color Squares", "Experiment": "Generating-Categories"}, "observation": {"11": {"stimulus": 14, "trial": 11, "rt": 1842}, "10": {"stimulus": 12, "trial": 10, "rt": 2072}, "1": {"stimulus": 32, "trial": 1, "rt": 1578}, "0": {"stimulus": 30, "trial": 0, "rt": 1955}, "3": {"stimulus": 12, "trial": 3, "rt": 1285}, "2": {"stimulus": 14, "trial": 2, "rt": 1637}, "5": {"stimulus": 14, "trial": 5, "rt": 1273}, "4": {"stimulus": 30, "trial": 4, "rt": 1354}, "7": {"stimulus": 12, "trial": 7, "rt": 5067}, "6": {"stimulus": 32, "trial": 6, "rt": 3655}, "9": {"stimulus": 32, "trial": 9, "rt": 904}, "8": {"stimulus": 30, "trial": 8, "rt": 3412}}, "generalization": {"56": {"stimulus": 41, "trial": 56, "rt": 163, "response": "Beta"}, "77": {"stimulus": 71, "trial": 77, "rt": 169, "response": "Alpha"}, "54": {"stimulus": 3, "trial": 54, "rt": 250, "response": "Alpha"}, "42": {"stimulus": 14, "trial": 42, "rt": 260, "response": "Alpha"}, "48": {"stimulus": 36, "trial": 48, "rt": 665, "response": "Alpha"}, "43": {"stimulus": 33, "trial": 43, "rt": 302, "response": "Beta"}, "60": {"stimulus": 67, "trial": 60, "rt": 292, "response": "Beta"}, "61": {"stimulus": 47, "trial": 61, "rt": 142, "response": "Alpha"}, "62": {"stimulus": 17, "trial": 62, "rt": 266, "response": "Beta"}, "63": {"stimulus": 73, "trial": 63, "rt": 198, "response": "Alpha"}, "64": {"stimulus": 77, "trial": 64, "rt": 208, "response": "Beta"}, "49": {"stimulus": 48, "trial": 49, "rt": 89, "response": "Beta"}, "66": {"stimulus": 31, "trial": 66, "rt": 178, "response": "Beta"}, "67": {"stimulus": 56, "trial": 67, "rt": 290, "response": "Alpha"}, "68": {"stimulus": 30, "trial": 68, "rt": 183, "response": "Beta"}, "69": {"stimulus": 70, "trial": 69, "rt": 212, "response": "Alpha"}, "80": {"stimulus": 61, "trial": 80, "rt": 265, "response": "Alpha"}, "52": {"stimulus": 13, "trial": 52, "rt": 281, "response": "Alpha"}, "53": {"stimulus": 8, "trial": 53, "rt": 226, "response": "Beta"}, "24": {"stimulus": 42, "trial": 24, "rt": 189, "response": "Beta"}, "25": {"stimulus": 27, "trial": 25, "rt": 209, "response": "Alpha"}, "26": {"stimulus": 44, "trial": 26, "rt": 276, "response": "Beta"}, "27": {"stimulus": 58, "trial": 27, "rt": 330, "response": "Alpha"}, "20": {"stimulus": 72, "trial": 20, "rt": 249, "response": "Alpha"}, "21": {"stimulus": 7, "trial": 21, "rt": 227, "response": "Beta"}, "22": {"stimulus": 80, "trial": 22, "rt": 93, "response": "Beta"}, "23": {"stimulus": 32, "trial": 23, "rt": 232, "response": "Alpha"}, "46": {"stimulus": 0, "trial": 46, "rt": 123, "response": "Beta"}, "47": {"stimulus": 68, "trial": 47, "rt": 370, "response": "Beta"}, "44": {"stimulus": 63, "trial": 44, "rt": 41038, "response": "Beta"}, "45": {"stimulus": 9, "trial": 45, "rt": 506, "response": "Beta"}, "28": {"stimulus": 35, "trial": 28, "rt": 193, "response": "Beta"}, "29": {"stimulus": 53, "trial": 29, "rt": 147, "response": "Alpha"}, "40": {"stimulus": 78, "trial": 40, "rt": 280, "response": "Alpha"}, "41": {"stimulus": 79, "trial": 41, "rt": 210, "response": "Beta"}, "1": {"stimulus": 25, "trial": 1, "rt": 1082, "response": "Alpha"}, "0": {"stimulus": 54, "trial": 0, "rt": 12358, "response": "Alpha"}, "3": {"stimulus": 38, "trial": 3, "rt": 255, "response": "Alpha"}, "2": {"stimulus": 16, "trial": 2, "rt": 363, "response": "Beta"}, "5": {"stimulus": 11, "trial": 5, "rt": 244, "response": "Alpha"}, "4": {"stimulus": 60, "trial": 4, "rt": 284, "response": "Alpha"}, "7": {"stimulus": 62, "trial": 7, "rt": 438, "response": "Beta"}, "6": {"stimulus": 45, "trial": 6, "rt": 354, "response": "Beta"}, "9": {"stimulus": 51, "trial": 9, "rt": 1214, "response": "Beta"}, "8": {"stimulus": 24, "trial": 8, "rt": 170, "response": "Beta"}, "78": {"stimulus": 1, "trial": 78, "rt": 231, "response": "Alpha"}, "51": {"stimulus": 69, "trial": 51, "rt": 131, "response": "Beta"}, "39": {"stimulus": 50, "trial": 39, "rt": 124, "response": "Beta"}, "65": {"stimulus": 4, "trial": 65, "rt": 262, "response": "Alpha"}, "76": {"stimulus": 6, "trial": 76, "rt": 555, "response": "Beta"}, "75": {"stimulus": 2, "trial": 75, "rt": 334, "response": "Alpha"}, "38": {"stimulus": 65, "trial": 38, "rt": 307, "response": "Alpha"}, "73": {"stimulus": 74, "trial": 73, "rt": 1281, "response": "Alpha"}, "72": {"stimulus": 29, "trial": 72, "rt": 234, "response": "Beta"}, "71": {"stimulus": 21, "trial": 71, "rt": 252, "response": "Alpha"}, "70": {"stimulus": 57, "trial": 70, "rt": 272, "response": "Beta"}, "59": {"stimulus": 40, "trial": 59, "rt": 825, "response": "Alpha"}, "79": {"stimulus": 66, "trial": 79, "rt": 258, "response": "Alpha"}, "58": {"stimulus": 52, "trial": 58, "rt": 164, "response": "Beta"}, "11": {"stimulus": 55, "trial": 11, "rt": 145, "response": "Beta"}, "10": {"stimulus": 19, "trial": 10, "rt": 243, "response": "Alpha"}, "13": {"stimulus": 49, "trial": 13, "rt": 252, "response": "Beta"}, "12": {"stimulus": 23, "trial": 12, "rt": 284, "response": "Alpha"}, "15": {"stimulus": 5, "trial": 15, "rt": 577, "response": "Alpha"}, "14": {"stimulus": 39, "trial": 14, "rt": 148, "response": "Alpha"}, "17": {"stimulus": 34, "trial": 17, "rt": 221, "response": "Alpha"}, "16": {"stimulus": 26, "trial": 16, "rt": 217, "response": "Alpha"}, "19": {"stimulus": 28, "trial": 19, "rt": 250, "response": "Alpha"}, "18": {"stimulus": 43, "trial": 18, "rt": 254, "response": "Alpha"}, "31": {"stimulus": 64, "trial": 31, "rt": 240, "response": "Beta"}, "30": {"stimulus": 12, "trial": 30, "rt": 244, "response": "Beta"}, "37": {"stimulus": 10, "trial": 37, "rt": 128, "response": "Beta"}, "36": {"stimulus": 37, "trial": 36, "rt": 269, "response": "Alpha"}, "35": {"stimulus": 20, "trial": 35, "rt": 129, "response": "Beta"}, "34": {"stimulus": 59, "trial": 34, "rt": 305, "response": "Alpha"}, "33": {"stimulus": 22, "trial": 33, "rt": 218, "response": "Alpha"}, "55": {"stimulus": 76, "trial": 55, "rt": 112, "response": "Alpha"}, "74": {"stimulus": 18, "trial": 74, "rt": 405, "response": "Beta"}, "32": {"stimulus": 15, "trial": 32, "rt": 100, "response": "Beta"}, "57": {"stimulus": 46, "trial": 57, "rt": 1074, "response": "Alpha"}, "50": {"stimulus": 75, "trial": 50, "rt": 282, "response": "Alpha"}}}