{"generation": {"1": {"stimulus": 25, "trial": 1, "rt": 3031}, "0": {"stimulus": 32, "trial": 0, "rt": 3029}, "3": {"stimulus": 74, "trial": 3, "rt": 2381}, "2": {"stimulus": 73, "trial": 2, "rt": 2967}}, "info": {"finish": 1482175265101, "participant": 64, "exposed": true, "lab": false, "start": 1482174621374, "counterbalance": 4, "condition": "Bottom", "browser": {"platform": "Win32", "userAgent": "Mozilla/5.0 (Windows NT 10.0; Win64; x64) AppleWebKit/537.36 (KHTML, like Gecko) Chrome/55.0.2883.87 Safari/537.36"}}, "experiment": {"Paradigm": "TACL", "Stimuli": "Size-Color Squares", "Experiment": "Generating-Categories"}, "observation": {"11": {"stimulus": 12, "trial": 11, "rt": 908}, "10": {"stimulus": 30, "trial": 10, "rt": 720}, "1": {"stimulus": 32, "trial": 1, "rt": 1516}, "0": {"stimulus": 12, "trial": 0, "rt": 541825}, "3": {"stimulus": 30, "trial": 3, "rt": 799}, "2": {"stimulus": 14, "trial": 2, "rt": 838}, "5": {"stimulus": 12, "trial": 5, "rt": 592}, "4": {"stimulus": 30, "trial": 4, "rt": 704}, "7": {"stimulus": 14, "trial": 7, "rt": 742}, "6": {"stimulus": 32, "trial": 6, "rt": 592}, "9": {"stimulus": 32, "trial": 9, "rt": 735}, "8": {"stimulus": 14, "trial": 8, "rt": 720}}, "generalization": {"56": {"stimulus": 45, "trial": 56, "rt": 248, "response": "Alpha"}, "77": {"stimulus": 46, "trial": 77, "rt": 216, "response": "Beta"}, "54": {"stimulus": 53, "trial": 54, "rt": 261, "response": "Alpha"}, "42": {"stimulus": 3, "trial": 42, "rt": 448, "response": "Beta"}, "48": {"stimulus": 43, "trial": 48, "rt": 196, "response": "Alpha"}, "43": {"stimulus": 61, "trial": 43, "rt": 256, "response": "Alpha"}, "60": {"stimulus": 5, "trial": 60, "rt": 208, "response": "Alpha"}, "61": {"stimulus": 36, "trial": 61, "rt": 298, "response": "Beta"}, "62": {"stimulus": 44, "trial": 62, "rt": 300, "response": "Alpha"}, "63": {"stimulus": 50, "trial": 63, "rt": 228, "response": "Beta"}, "64": {"stimulus": 25, "trial": 64, "rt": 246, "response": "Alpha"}, "49": {"stimulus": 68, "trial": 49, "rt": 391, "response": "Beta"}, "66": {"stimulus": 20, "trial": 66, "rt": 178, "response": "Alpha"}, "67": {"stimulus": 73, "trial": 67, "rt": 222, "response": "Alpha"}, "68": {"stimulus": 78, "trial": 68, "rt": 206, "response": "Beta"}, "69": {"stimulus": 52, "trial": 69, "rt": 228, "response": "Alpha"}, "80": {"stimulus": 24, "trial": 80, "rt": 244, "response": "Alpha"}, "52": {"stimulus": 48, "trial": 52, "rt": 127, "response": "Alpha"}, "53": {"stimulus": 18, "trial": 53, "rt": 272, "response": "Beta"}, "24": {"stimulus": 65, "trial": 24, "rt": 137, "response": "Alpha"}, "25": {"stimulus": 62, "trial": 25, "rt": 139, "response": "Beta"}, "26": {"stimulus": 21, "trial": 26, "rt": 519, "response": "Alpha"}, "27": {"stimulus": 72, "trial": 27, "rt": 166, "response": "Alpha"}, "20": {"stimulus": 10, "trial": 20, "rt": 209, "response": "Beta"}, "21": {"stimulus": 51, "trial": 21, "rt": 219, "response": "Beta"}, "22": {"stimulus": 0, "trial": 22, "rt": 165, "response": "Alpha"}, "23": {"stimulus": 26, "trial": 23, "rt": 242, "response": "Beta"}, "46": {"stimulus": 14, "trial": 46, "rt": 246, "response": "Alpha"}, "47": {"stimulus": 54, "trial": 47, "rt": 213, "response": "Beta"}, "44": {"stimulus": 15, "trial": 44, "rt": 235, "response": "Beta"}, "45": {"stimulus": 42, "trial": 45, "rt": 618, "response": "Beta"}, "28": {"stimulus": 32, "trial": 28, "rt": 180, "response": "Beta"}, "29": {"stimulus": 77, "trial": 29, "rt": 211, "response": "Alpha"}, "40": {"stimulus": 35, "trial": 40, "rt": 269, "response": "Beta"}, "41": {"stimulus": 33, "trial": 41, "rt": 170, "response": "Alpha"}, "1": {"stimulus": 38, "trial": 1, "rt": 642, "response": "Alpha"}, "0": {"stimulus": 64, "trial": 0, "rt": 2335, "response": "Beta"}, "3": {"stimulus": 9, "trial": 3, "rt": 345, "response": "Alpha"}, "2": {"stimulus": 40, "trial": 2, "rt": 673, "response": "Beta"}, "5": {"stimulus": 6, "trial": 5, "rt": 74, "response": "Alpha"}, "4": {"stimulus": 59, "trial": 4, "rt": 372, "response": "Beta"}, "7": {"stimulus": 4, "trial": 7, "rt": 191, "response": "Alpha"}, "6": {"stimulus": 55, "trial": 6, "rt": 141, "response": "Beta"}, "9": {"stimulus": 79, "trial": 9, "rt": 1533, "response": "Beta"}, "8": {"stimulus": 71, "trial": 8, "rt": 181, "response": "Beta"}, "78": {"stimulus": 60, "trial": 78, "rt": 226, "response": "Beta"}, "51": {"stimulus": 56, "trial": 51, "rt": 216, "response": "Beta"}, "39": {"stimulus": 23, "trial": 39, "rt": 255, "response": "Alpha"}, "65": {"stimulus": 12, "trial": 65, "rt": 386, "response": "Beta"}, "76": {"stimulus": 13, "trial": 76, "rt": 252, "response": "Beta"}, "75": {"stimulus": 39, "trial": 75, "rt": 177, "response": "Alpha"}, "38": {"stimulus": 58, "trial": 38, "rt": 196, "response": "Beta"}, "73": {"stimulus": 66, "trial": 73, "rt": 234, "response": "Beta"}, "72": {"stimulus": 17, "trial": 72, "rt": 276, "response": "Beta"}, "71": {"stimulus": 41, "trial": 71, "rt": 693, "response": "Beta"}, "70": {"stimulus": 19, "trial": 70, "rt": 130, "response": "Beta"}, "59": {"stimulus": 27, "trial": 59, "rt": 255, "response": "Beta"}, "79": {"stimulus": 69, "trial": 79, "rt": 197, "response": "Alpha"}, "58": {"stimulus": 29, "trial": 58, "rt": 289, "response": "Alpha"}, "11": {"stimulus": 76, "trial": 11, "rt": 180, "response": "Beta"}, "10": {"stimulus": 1, "trial": 10, "rt": 610, "response": "Alpha"}, "13": {"stimulus": 75, "trial": 13, "rt": 255, "response": "Beta"}, "12": {"stimulus": 8, "trial": 12, "rt": 198, "response": "Alpha"}, "15": {"stimulus": 49, "trial": 15, "rt": 256, "response": "Beta"}, "14": {"stimulus": 80, "trial": 14, "rt": 177, "response": "Alpha"}, "17": {"stimulus": 47, "trial": 17, "rt": 350, "response": "Beta"}, "16": {"stimulus": 70, "trial": 16, "rt": 233, "response": "Alpha"}, "19": {"stimulus": 2, "trial": 19, "rt": 236, "response": "Alpha"}, "18": {"stimulus": 22, "trial": 18, "rt": 235, "response": "Beta"}, "31": {"stimulus": 28, "trial": 31, "rt": 140, "response": "Alpha"}, "30": {"stimulus": 37, "trial": 30, "rt": 260, "response": "Beta"}, "37": {"stimulus": 34, "trial": 37, "rt": 191, "response": "Alpha"}, "36": {"stimulus": 31, "trial": 36, "rt": 114, "response": "Alpha"}, "35": {"stimulus": 7, "trial": 35, "rt": 255, "response": "Beta"}, "34": {"stimulus": 57, "trial": 34, "rt": 233, "response": "Alpha"}, "33": {"stimulus": 16, "trial": 33, "rt": 204, "response": "Beta"}, "55": {"stimulus": 74, "trial": 55, "rt": 119, "response": "Beta"}, "74": {"stimulus": 30, "trial": 74, "rt": 233, "response": "Alpha"}, "32": {"stimulus": 67, "trial": 32, "rt": 255, "response": "Beta"}, "57": {"stimulus": 63, "trial": 57, "rt": 163, "response": "Beta"}, "50": {"stimulus": 11, "trial": 50, "rt": 273, "response": "Alpha"}}}