{"generation": {"1": {"stimulus": 79, "trial": 1, "rt": 22731}, "0": {"stimulus": 16, "trial": 0, "rt": 19338}, "3": {"stimulus": 26, "trial": 3, "rt": 10588}, "2": {"stimulus": 8, "trial": 2, "rt": 12643}}, "info": {"finish": 1482175173214, "participant": 65, "exposed": true, "lab": false, "start": 1482174690323, "counterbalance": 5, "condition": "Middle", "browser": {"platform": "Win32", "userAgent": "Mozilla/5.0 (Windows NT 10.0; WOW64; rv:50.0) Gecko/20100101 Firefox/50.0"}}, "experiment": {"Paradigm": "TACL", "Stimuli": "Size-Color Squares", "Experiment": "Generating-Categories"}, "observation": {"11": {"stimulus": 48, "trial": 11, "rt": 5164}, "10": {"stimulus": 30, "trial": 10, "rt": 5182}, "1": {"stimulus": 30, "trial": 1, "rt": 17005}, "0": {"stimulus": 32, "trial": 0, "rt": 83067}, "3": {"stimulus": 48, "trial": 3, "rt": 6394}, "2": {"stimulus": 50, "trial": 2, "rt": 3831}, "5": {"stimulus": 30, "trial": 5, "rt": 1783}, "4": {"stimulus": 32, "trial": 4, "rt": 4326}, "7": {"stimulus": 48, "trial": 7, "rt": 7467}, "6": {"stimulus": 50, "trial": 6, "rt": 3392}, "9": {"stimulus": 50, "trial": 9, "rt": 4975}, "8": {"stimulus": 32, "trial": 8, "rt": 2539}}, "generalization": {"56": {"stimulus": 45, "trial": 56, "rt": 1733, "response": "Alpha"}, "77": {"stimulus": 4, "trial": 77, "rt": 1823, "response": "Alpha"}, "54": {"stimulus": 49, "trial": 54, "rt": 676, "response": "Alpha"}, "42": {"stimulus": 2, "trial": 42, "rt": 671, "response": "Alpha"}, "48": {"stimulus": 27, "trial": 48, "rt": 1389, "response": "Alpha"}, "43": {"stimulus": 50, "trial": 43, "rt": 1373, "response": "Alpha"}, "60": {"stimulus": 70, "trial": 60, "rt": 1684, "response": "Beta"}, "61": {"stimulus": 37, "trial": 61, "rt": 1762, "response": "Alpha"}, "62": {"stimulus": 66, "trial": 62, "rt": 706, "response": "Alpha"}, "63": {"stimulus": 3, "trial": 63, "rt": 594, "response": "Alpha"}, "64": {"stimulus": 43, "trial": 64, "rt": 1253, "response": "Beta"}, "49": {"stimulus": 78, "trial": 49, "rt": 6855, "response": "Beta"}, "66": {"stimulus": 75, "trial": 66, "rt": 861, "response": "Alpha"}, "67": {"stimulus": 11, "trial": 67, "rt": 735, "response": "Alpha"}, "68": {"stimulus": 15, "trial": 68, "rt": 2026, "response": "Beta"}, "69": {"stimulus": 38, "trial": 69, "rt": 815, "response": "Alpha"}, "80": {"stimulus": 28, "trial": 80, "rt": 568, "response": "Alpha"}, "52": {"stimulus": 7, "trial": 52, "rt": 635, "response": "Beta"}, "53": {"stimulus": 60, "trial": 53, "rt": 1716, "response": "Beta"}, "24": {"stimulus": 65, "trial": 24, "rt": 958, "response": "Alpha"}, "25": {"stimulus": 24, "trial": 25, "rt": 6142, "response": "Alpha"}, "26": {"stimulus": 17, "trial": 26, "rt": 1881, "response": "Beta"}, "27": {"stimulus": 77, "trial": 27, "rt": 12554, "response": "Alpha"}, "20": {"stimulus": 23, "trial": 20, "rt": 677, "response": "Alpha"}, "21": {"stimulus": 71, "trial": 21, "rt": 1704, "response": "Beta"}, "22": {"stimulus": 41, "trial": 22, "rt": 1635, "response": "Alpha"}, "23": {"stimulus": 55, "trial": 23, "rt": 1267, "response": "Alpha"}, "46": {"stimulus": 76, "trial": 46, "rt": 832, "response": "Alpha"}, "47": {"stimulus": 34, "trial": 47, "rt": 1739, "response": "Beta"}, "44": {"stimulus": 40, "trial": 44, "rt": 1221, "response": "Alpha"}, "45": {"stimulus": 61, "trial": 45, "rt": 1366, "response": "Beta"}, "28": {"stimulus": 69, "trial": 28, "rt": 6951, "response": "Alpha"}, "29": {"stimulus": 8, "trial": 29, "rt": 1544, "response": "Beta"}, "40": {"stimulus": 51, "trial": 40, "rt": 1888, "response": "Alpha"}, "41": {"stimulus": 10, "trial": 41, "rt": 1010, "response": "Alpha"}, "1": {"stimulus": 68, "trial": 1, "rt": 3186, "response": "Alpha"}, "0": {"stimulus": 1, "trial": 0, "rt": 6637, "response": "Alpha"}, "3": {"stimulus": 62, "trial": 3, "rt": 1463, "response": "Beta"}, "2": {"stimulus": 13, "trial": 2, "rt": 3294, "response": "Alpha"}, "5": {"stimulus": 44, "trial": 5, "rt": 1439, "response": "Beta"}, "4": {"stimulus": 59, "trial": 4, "rt": 2077, "response": "Alpha"}, "7": {"stimulus": 33, "trial": 7, "rt": 1031, "response": "Alpha"}, "6": {"stimulus": 42, "trial": 6, "rt": 5840, "response": "Alpha"}, "9": {"stimulus": 52, "trial": 9, "rt": 1780, "response": "Beta"}, "8": {"stimulus": 22, "trial": 8, "rt": 1268, "response": "Alpha"}, "78": {"stimulus": 72, "trial": 78, "rt": 2025, "response": "Alpha"}, "51": {"stimulus": 53, "trial": 51, "rt": 1647, "response": "Beta"}, "39": {"stimulus": 58, "trial": 39, "rt": 1189, "response": "Alpha"}, "65": {"stimulus": 32, "trial": 65, "rt": 1763, "response": "Alpha"}, "76": {"stimulus": 63, "trial": 76, "rt": 609, "response": "Alpha"}, "75": {"stimulus": 19, "trial": 75, "rt": 667, "response": "Alpha"}, "38": {"stimulus": 29, "trial": 38, "rt": 1138, "response": "Alpha"}, "73": {"stimulus": 6, "trial": 73, "rt": 3140, "response": "Beta"}, "72": {"stimulus": 9, "trial": 72, "rt": 801, "response": "Alpha"}, "71": {"stimulus": 5, "trial": 71, "rt": 758, "response": "Alpha"}, "70": {"stimulus": 74, "trial": 70, "rt": 543, "response": "Alpha"}, "59": {"stimulus": 36, "trial": 59, "rt": 626, "response": "Alpha"}, "79": {"stimulus": 0, "trial": 79, "rt": 1080, "response": "Alpha"}, "58": {"stimulus": 67, "trial": 58, "rt": 1768, "response": "Alpha"}, "11": {"stimulus": 18, "trial": 11, "rt": 1419, "response": "Alpha"}, "10": {"stimulus": 26, "trial": 10, "rt": 771, "response": "Beta"}, "13": {"stimulus": 16, "trial": 13, "rt": 1355, "response": "Beta"}, "12": {"stimulus": 20, "trial": 12, "rt": 804, "response": "Alpha"}, "15": {"stimulus": 54, "trial": 15, "rt": 671, "response": "Alpha"}, "14": {"stimulus": 47, "trial": 14, "rt": 1208, "response": "Alpha"}, "17": {"stimulus": 64, "trial": 17, "rt": 2034, "response": "Alpha"}, "16": {"stimulus": 35, "trial": 16, "rt": 1203, "response": "Beta"}, "19": {"stimulus": 39, "trial": 19, "rt": 1303, "response": "Alpha"}, "18": {"stimulus": 80, "trial": 18, "rt": 3199, "response": "Beta"}, "31": {"stimulus": 30, "trial": 31, "rt": 1215, "response": "Alpha"}, "30": {"stimulus": 79, "trial": 30, "rt": 2132, "response": "Beta"}, "37": {"stimulus": 25, "trial": 37, "rt": 1215, "response": "Beta"}, "36": {"stimulus": 31, "trial": 36, "rt": 625, "response": "Alpha"}, "35": {"stimulus": 57, "trial": 35, "rt": 1272, "response": "Alpha"}, "34": {"stimulus": 46, "trial": 34, "rt": 705, "response": "Alpha"}, "33": {"stimulus": 21, "trial": 33, "rt": 619, "response": "Alpha"}, "55": {"stimulus": 73, "trial": 55, "rt": 2808, "response": "Alpha"}, "74": {"stimulus": 56, "trial": 74, "rt": 706, "response": "Alpha"}, "32": {"stimulus": 14, "trial": 32, "rt": 1014, "response": "Alpha"}, "57": {"stimulus": 48, "trial": 57, "rt": 690, "response": "Alpha"}, "50": {"stimulus": 12, "trial": 50, "rt": 5618, "response": "Alpha"}}}