{"generation": {"1": {"stimulus": 18, "trial": 1, "rt": 5677}, "0": {"stimulus": 27, "trial": 0, "rt": 26882}, "3": {"stimulus": 9, "trial": 3, "rt": 7605}, "2": {"stimulus": 54, "trial": 2, "rt": 5713}}, "info": {"finish": 1482175079298, "participant": 66, "exposed": true, "lab": false, "start": 1482174766573, "counterbalance": 6, "condition": "Middle", "browser": {"platform": "Win32", "userAgent": "Mozilla/5.0 (Windows NT 10.0; WOW64) AppleWebKit/537.36 (KHTML, like Gecko) Chrome/55.0.2883.87 Safari/537.36"}}, "experiment": {"Paradigm": "TACL", "Stimuli": "Size-Color Squares", "Experiment": "Generating-Categories"}, "observation": {"11": {"stimulus": 30, "trial": 11, "rt": 2549}, "10": {"stimulus": 48, "trial": 10, "rt": 2377}, "1": {"stimulus": 32, "trial": 1, "rt": 3291}, "0": {"stimulus": 48, "trial": 0, "rt": 5692}, "3": {"stimulus": 50, "trial": 3, "rt": 4434}, "2": {"stimulus": 30, "trial": 2, "rt": 2414}, "5": {"stimulus": 48, "trial": 5, "rt": 2608}, "4": {"stimulus": 50, "trial": 4, "rt": 2796}, "7": {"stimulus": 30, "trial": 7, "rt": 3798}, "6": {"stimulus": 32, "trial": 6, "rt": 2688}, "9": {"stimulus": 32, "trial": 9, "rt": 2888}, "8": {"stimulus": 50, "trial": 8, "rt": 3096}}, "generalization": {"56": {"stimulus": 17, "trial": 56, "rt": 1139, "response": "Alpha"}, "77": {"stimulus": 40, "trial": 77, "rt": 2275, "response": "Alpha"}, "54": {"stimulus": 45, "trial": 54, "rt": 924, "response": "Beta"}, "42": {"stimulus": 72, "trial": 42, "rt": 1075, "response": "Beta"}, "48": {"stimulus": 21, "trial": 48, "rt": 797, "response": "Alpha"}, "43": {"stimulus": 30, "trial": 43, "rt": 865, "response": "Alpha"}, "60": {"stimulus": 25, "trial": 60, "rt": 634, "response": "Alpha"}, "61": {"stimulus": 41, "trial": 61, "rt": 548, "response": "Alpha"}, "62": {"stimulus": 5, "trial": 62, "rt": 569, "response": "Alpha"}, "63": {"stimulus": 11, "trial": 63, "rt": 786, "response": "Alpha"}, "64": {"stimulus": 23, "trial": 64, "rt": 662, "response": "Alpha"}, "49": {"stimulus": 18, "trial": 49, "rt": 1091, "response": "Beta"}, "66": {"stimulus": 43, "trial": 66, "rt": 666, "response": "Alpha"}, "67": {"stimulus": 78, "trial": 67, "rt": 631, "response": "Alpha"}, "68": {"stimulus": 77, "trial": 68, "rt": 599, "response": "Alpha"}, "69": {"stimulus": 35, "trial": 69, "rt": 621, "response": "Alpha"}, "80": {"stimulus": 22, "trial": 80, "rt": 464, "response": "Alpha"}, "52": {"stimulus": 69, "trial": 52, "rt": 893, "response": "Alpha"}, "53": {"stimulus": 32, "trial": 53, "rt": 1123, "response": "Alpha"}, "24": {"stimulus": 59, "trial": 24, "rt": 963, "response": "Alpha"}, "25": {"stimulus": 42, "trial": 25, "rt": 1014, "response": "Alpha"}, "26": {"stimulus": 4, "trial": 26, "rt": 1051, "response": "Alpha"}, "27": {"stimulus": 74, "trial": 27, "rt": 1115, "response": "Alpha"}, "20": {"stimulus": 71, "trial": 20, "rt": 1004, "response": "Alpha"}, "21": {"stimulus": 64, "trial": 21, "rt": 1374, "response": "Alpha"}, "22": {"stimulus": 16, "trial": 22, "rt": 1098, "response": "Alpha"}, "23": {"stimulus": 47, "trial": 23, "rt": 954, "response": "Alpha"}, "46": {"stimulus": 0, "trial": 46, "rt": 1427, "response": "Beta"}, "47": {"stimulus": 65, "trial": 47, "rt": 1168, "response": "Alpha"}, "44": {"stimulus": 53, "trial": 44, "rt": 887, "response": "Alpha"}, "45": {"stimulus": 28, "trial": 45, "rt": 983, "response": "Alpha"}, "28": {"stimulus": 9, "trial": 28, "rt": 1159, "response": "Beta"}, "29": {"stimulus": 44, "trial": 29, "rt": 991, "response": "Alpha"}, "40": {"stimulus": 14, "trial": 40, "rt": 884, "response": "Alpha"}, "41": {"stimulus": 27, "trial": 41, "rt": 1039, "response": "Beta"}, "1": {"stimulus": 38, "trial": 1, "rt": 2212, "response": "Alpha"}, "0": {"stimulus": 31, "trial": 0, "rt": 2671, "response": "Alpha"}, "3": {"stimulus": 20, "trial": 3, "rt": 1775, "response": "Alpha"}, "2": {"stimulus": 33, "trial": 2, "rt": 1249, "response": "Alpha"}, "5": {"stimulus": 10, "trial": 5, "rt": 3960, "response": "Alpha"}, "4": {"stimulus": 50, "trial": 4, "rt": 1633, "response": "Alpha"}, "7": {"stimulus": 49, "trial": 7, "rt": 1424, "response": "Alpha"}, "6": {"stimulus": 26, "trial": 6, "rt": 996, "response": "Alpha"}, "9": {"stimulus": 37, "trial": 9, "rt": 1805, "response": "Alpha"}, "8": {"stimulus": 39, "trial": 8, "rt": 955, "response": "Alpha"}, "78": {"stimulus": 3, "trial": 78, "rt": 630, "response": "Alpha"}, "51": {"stimulus": 68, "trial": 51, "rt": 915, "response": "Alpha"}, "39": {"stimulus": 58, "trial": 39, "rt": 909, "response": "Alpha"}, "65": {"stimulus": 46, "trial": 65, "rt": 1055, "response": "Alpha"}, "76": {"stimulus": 63, "trial": 76, "rt": 1007, "response": "Beta"}, "75": {"stimulus": 60, "trial": 75, "rt": 718, "response": "Alpha"}, "38": {"stimulus": 76, "trial": 38, "rt": 803, "response": "Alpha"}, "73": {"stimulus": 7, "trial": 73, "rt": 667, "response": "Alpha"}, "72": {"stimulus": 29, "trial": 72, "rt": 738, "response": "Alpha"}, "71": {"stimulus": 48, "trial": 71, "rt": 727, "response": "Alpha"}, "70": {"stimulus": 2, "trial": 70, "rt": 944, "response": "Alpha"}, "59": {"stimulus": 54, "trial": 59, "rt": 1028, "response": "Beta"}, "79": {"stimulus": 56, "trial": 79, "rt": 685, "response": "Alpha"}, "58": {"stimulus": 61, "trial": 58, "rt": 662, "response": "Alpha"}, "11": {"stimulus": 52, "trial": 11, "rt": 1923, "response": "Alpha"}, "10": {"stimulus": 8, "trial": 10, "rt": 1244, "response": "Alpha"}, "13": {"stimulus": 67, "trial": 13, "rt": 1038, "response": "Alpha"}, "12": {"stimulus": 24, "trial": 12, "rt": 1113, "response": "Alpha"}, "15": {"stimulus": 66, "trial": 15, "rt": 948, "response": "Alpha"}, "14": {"stimulus": 36, "trial": 14, "rt": 1326, "response": "Beta"}, "17": {"stimulus": 70, "trial": 17, "rt": 1034, "response": "Alpha"}, "16": {"stimulus": 13, "trial": 16, "rt": 1090, "response": "Alpha"}, "19": {"stimulus": 51, "trial": 19, "rt": 1204, "response": "Alpha"}, "18": {"stimulus": 19, "trial": 18, "rt": 1293, "response": "Alpha"}, "31": {"stimulus": 62, "trial": 31, "rt": 895, "response": "Alpha"}, "30": {"stimulus": 80, "trial": 30, "rt": 1021, "response": "Alpha"}, "37": {"stimulus": 55, "trial": 37, "rt": 3908, "response": "Alpha"}, "36": {"stimulus": 79, "trial": 36, "rt": 761, "response": "Alpha"}, "35": {"stimulus": 34, "trial": 35, "rt": 1126, "response": "Alpha"}, "34": {"stimulus": 6, "trial": 34, "rt": 926, "response": "Alpha"}, "33": {"stimulus": 57, "trial": 33, "rt": 910, "response": "Alpha"}, "55": {"stimulus": 75, "trial": 55, "rt": 1150, "response": "Alpha"}, "74": {"stimulus": 1, "trial": 74, "rt": 1190, "response": "Alpha"}, "32": {"stimulus": 73, "trial": 32, "rt": 1205, "response": "Alpha"}, "57": {"stimulus": 15, "trial": 57, "rt": 639, "response": "Alpha"}, "50": {"stimulus": 12, "trial": 50, "rt": 2053, "response": "Alpha"}}}