{"generation": {"1": {"stimulus": 9, "trial": 1, "rt": 15785}, "0": {"stimulus": 0, "trial": 0, "rt": 31397}, "3": {"stimulus": 27, "trial": 3, "rt": 21376}, "2": {"stimulus": 18, "trial": 2, "rt": 14461}}, "info": {"participant": 67, "exposed": true, "lab": false, "start": 1482174915086, "counterbalance": 5, "condition": "Middle", "browser": {"platform": "Win32", "userAgent": "Mozilla/5.0 (Windows NT 10.0; WOW64; rv:50.0) Gecko/20100101 Firefox/50.0"}}, "experiment": {"Paradigm": "TACL", "Stimuli": "Size-Color Squares", "Experiment": "Generating-Categories"}, "observation": {"11": {"stimulus": 48, "trial": 11, "rt": 1636}, "10": {"stimulus": 30, "trial": 10, "rt": 1525}, "1": {"stimulus": 30, "trial": 1, "rt": 1957}, "0": {"stimulus": 50, "trial": 0, "rt": 2748}, "3": {"stimulus": 48, "trial": 3, "rt": 1730}, "2": {"stimulus": 32, "trial": 2, "rt": 3334}, "5": {"stimulus": 30, "trial": 5, "rt": 1813}, "4": {"stimulus": 48, "trial": 4, "rt": 1497}, "7": {"stimulus": 50, "trial": 7, "rt": 1816}, "6": {"stimulus": 32, "trial": 6, "rt": 1448}, "9": {"stimulus": 50, "trial": 9, "rt": 1662}, "8": {"stimulus": 32, "trial": 8, "rt": 1431}}, "generalization": {"56": {"stimulus": 5, "trial": 56, "rt": 620, "response": "Alpha"}, "77": {"stimulus": 28, "trial": 77, "rt": 1105, "response": "Alpha"}, "54": {"stimulus": 21, "trial": 54, "rt": 608, "response": "Alpha"}, "42": {"stimulus": 16, "trial": 42, "rt": 688, "response": "Alpha"}, "48": {"stimulus": 3, "trial": 48, "rt": 1221, "response": "Alpha"}, "43": {"stimulus": 65, "trial": 43, "rt": 759, "response": "Alpha"}, "60": {"stimulus": 8, "trial": 60, "rt": 595, "response": "Alpha"}, "61": {"stimulus": 22, "trial": 61, "rt": 595, "response": "Alpha"}, "62": {"stimulus": 34, "trial": 62, "rt": 580, "response": "Alpha"}, "63": {"stimulus": 43, "trial": 63, "rt": 540, "response": "Alpha"}, "64": {"stimulus": 1, "trial": 64, "rt": 2599, "response": "Alpha"}, "49": {"stimulus": 20, "trial": 49, "rt": 685, "response": "Alpha"}, "66": {"stimulus": 62, "trial": 66, "rt": 607, "response": "Alpha"}, "67": {"stimulus": 63, "trial": 67, "rt": 1353, "response": "Alpha"}, "68": {"stimulus": 44, "trial": 68, "rt": 619, "response": "Alpha"}, "69": {"stimulus": 72, "trial": 69, "rt": 960, "response": "Alpha"}, "80": {"stimulus": 17, "trial": 80, "rt": 618, "response": "Alpha"}, "52": {"stimulus": 70, "trial": 52, "rt": 572, "response": "Alpha"}, "53": {"stimulus": 64, "trial": 53, "rt": 557, "response": "Alpha"}, "24": {"stimulus": 50, "trial": 24, "rt": 9104, "response": "Alpha"}, "25": {"stimulus": 67, "trial": 25, "rt": 815, "response": "Alpha"}, "26": {"stimulus": 9, "trial": 26, "rt": 1728, "response": "Beta"}, "27": {"stimulus": 66, "trial": 27, "rt": 1033, "response": "Alpha"}, "20": {"stimulus": 53, "trial": 20, "rt": 705, "response": "Alpha"}, "21": {"stimulus": 78, "trial": 21, "rt": 685, "response": "Alpha"}, "22": {"stimulus": 75, "trial": 22, "rt": 860, "response": "Alpha"}, "23": {"stimulus": 54, "trial": 23, "rt": 3241, "response": "Alpha"}, "46": {"stimulus": 38, "trial": 46, "rt": 745, "response": "Alpha"}, "47": {"stimulus": 0, "trial": 47, "rt": 1081, "response": "Beta"}, "44": {"stimulus": 51, "trial": 44, "rt": 633, "response": "Alpha"}, "45": {"stimulus": 79, "trial": 45, "rt": 634, "response": "Alpha"}, "28": {"stimulus": 45, "trial": 28, "rt": 3999, "response": "Alpha"}, "29": {"stimulus": 10, "trial": 29, "rt": 1414, "response": "Beta"}, "40": {"stimulus": 14, "trial": 40, "rt": 529, "response": "Alpha"}, "41": {"stimulus": 19, "trial": 41, "rt": 1081, "response": "Alpha"}, "1": {"stimulus": 77, "trial": 1, "rt": 2220, "response": "Alpha"}, "0": {"stimulus": 29, "trial": 0, "rt": 2386, "response": "Alpha"}, "3": {"stimulus": 33, "trial": 3, "rt": 1001, "response": "Alpha"}, "2": {"stimulus": 56, "trial": 2, "rt": 2167, "response": "Alpha"}, "5": {"stimulus": 24, "trial": 5, "rt": 702, "response": "Alpha"}, "4": {"stimulus": 48, "trial": 4, "rt": 861, "response": "Alpha"}, "7": {"stimulus": 69, "trial": 7, "rt": 807, "response": "Alpha"}, "6": {"stimulus": 57, "trial": 6, "rt": 876, "response": "Alpha"}, "9": {"stimulus": 60, "trial": 9, "rt": 767, "response": "Alpha"}, "8": {"stimulus": 37, "trial": 8, "rt": 3325, "response": "Alpha"}, "78": {"stimulus": 11, "trial": 78, "rt": 742, "response": "Alpha"}, "51": {"stimulus": 41, "trial": 51, "rt": 649, "response": "Alpha"}, "39": {"stimulus": 25, "trial": 39, "rt": 1079, "response": "Alpha"}, "65": {"stimulus": 58, "trial": 65, "rt": 737, "response": "Alpha"}, "76": {"stimulus": 40, "trial": 76, "rt": 600, "response": "Alpha"}, "75": {"stimulus": 4, "trial": 75, "rt": 737, "response": "Alpha"}, "38": {"stimulus": 27, "trial": 38, "rt": 1221, "response": "Beta"}, "73": {"stimulus": 42, "trial": 73, "rt": 1151, "response": "Alpha"}, "72": {"stimulus": 6, "trial": 72, "rt": 2787, "response": "Alpha"}, "71": {"stimulus": 76, "trial": 71, "rt": 1119, "response": "Alpha"}, "70": {"stimulus": 2, "trial": 70, "rt": 1175, "response": "Alpha"}, "59": {"stimulus": 71, "trial": 59, "rt": 721, "response": "Alpha"}, "79": {"stimulus": 26, "trial": 79, "rt": 664, "response": "Alpha"}, "58": {"stimulus": 7, "trial": 58, "rt": 563, "response": "Alpha"}, "11": {"stimulus": 12, "trial": 11, "rt": 1987, "response": "Alpha"}, "10": {"stimulus": 35, "trial": 10, "rt": 688, "response": "Alpha"}, "13": {"stimulus": 73, "trial": 13, "rt": 1761, "response": "Alpha"}, "12": {"stimulus": 68, "trial": 12, "rt": 885, "response": "Alpha"}, "15": {"stimulus": 18, "trial": 15, "rt": 1355, "response": "Beta"}, "14": {"stimulus": 52, "trial": 14, "rt": 851, "response": "Alpha"}, "17": {"stimulus": 15, "trial": 17, "rt": 709, "response": "Alpha"}, "16": {"stimulus": 32, "trial": 16, "rt": 1010, "response": "Alpha"}, "19": {"stimulus": 59, "trial": 19, "rt": 993, "response": "Alpha"}, "18": {"stimulus": 23, "trial": 18, "rt": 627, "response": "Alpha"}, "31": {"stimulus": 13, "trial": 31, "rt": 892, "response": "Alpha"}, "30": {"stimulus": 61, "trial": 30, "rt": 1004, "response": "Alpha"}, "37": {"stimulus": 36, "trial": 37, "rt": 1503, "response": "Beta"}, "36": {"stimulus": 80, "trial": 36, "rt": 1330, "response": "Alpha"}, "35": {"stimulus": 30, "trial": 35, "rt": 791, "response": "Alpha"}, "34": {"stimulus": 31, "trial": 34, "rt": 635, "response": "Alpha"}, "33": {"stimulus": 49, "trial": 33, "rt": 735, "response": "Alpha"}, "55": {"stimulus": 47, "trial": 55, "rt": 579, "response": "Alpha"}, "74": {"stimulus": 39, "trial": 74, "rt": 3790, "response": "Alpha"}, "32": {"stimulus": 74, "trial": 32, "rt": 871, "response": "Alpha"}, "57": {"stimulus": 55, "trial": 57, "rt": 656, "response": "Alpha"}, "50": {"stimulus": 46, "trial": 50, "rt": 527, "response": "Alpha"}}}