{"generation": {"1": {"stimulus": 80, "trial": 1, "rt": 6537}, "0": {"stimulus": 8, "trial": 0, "rt": 12009}, "3": {"stimulus": 71, "trial": 3, "rt": 8662}, "2": {"stimulus": 17, "trial": 2, "rt": 12311}}, "info": {"finish": 1482175165560, "participant": 68, "exposed": true, "lab": false, "start": 1482174931273, "counterbalance": 4, "condition": "Middle", "browser": {"platform": "Win32", "userAgent": "Mozilla/5.0 (Windows NT 10.0; WOW64) AppleWebKit/537.36 (KHTML, like Gecko) Chrome/55.0.2883.87 Safari/537.36"}}, "experiment": {"Paradigm": "TACL", "Stimuli": "Size-Color Squares", "Experiment": "Generating-Categories"}, "observation": {"11": {"stimulus": 48, "trial": 11, "rt": 1272}, "10": {"stimulus": 32, "trial": 10, "rt": 1288}, "1": {"stimulus": 48, "trial": 1, "rt": 1342}, "0": {"stimulus": 30, "trial": 0, "rt": 1647}, "3": {"stimulus": 50, "trial": 3, "rt": 1370}, "2": {"stimulus": 32, "trial": 2, "rt": 1915}, "5": {"stimulus": 50, "trial": 5, "rt": 1259}, "4": {"stimulus": 48, "trial": 4, "rt": 1594}, "7": {"stimulus": 30, "trial": 7, "rt": 2945}, "6": {"stimulus": 32, "trial": 6, "rt": 1622}, "9": {"stimulus": 50, "trial": 9, "rt": 1620}, "8": {"stimulus": 30, "trial": 8, "rt": 1734}}, "generalization": {"56": {"stimulus": 29, "trial": 56, "rt": 1421, "response": "Alpha"}, "77": {"stimulus": 3, "trial": 77, "rt": 704, "response": "Alpha"}, "54": {"stimulus": 74, "trial": 54, "rt": 1364, "response": "Alpha"}, "42": {"stimulus": 47, "trial": 42, "rt": 1417, "response": "Alpha"}, "48": {"stimulus": 38, "trial": 48, "rt": 1448, "response": "Alpha"}, "43": {"stimulus": 77, "trial": 43, "rt": 1201, "response": "Alpha"}, "60": {"stimulus": 37, "trial": 60, "rt": 1015, "response": "Beta"}, "61": {"stimulus": 18, "trial": 61, "rt": 911, "response": "Beta"}, "62": {"stimulus": 0, "trial": 62, "rt": 639, "response": "Beta"}, "63": {"stimulus": 23, "trial": 63, "rt": 755, "response": "Alpha"}, "64": {"stimulus": 31, "trial": 64, "rt": 808, "response": "Alpha"}, "49": {"stimulus": 62, "trial": 49, "rt": 1303, "response": "Beta"}, "66": {"stimulus": 70, "trial": 66, "rt": 794, "response": "Alpha"}, "67": {"stimulus": 35, "trial": 67, "rt": 1092, "response": "Beta"}, "68": {"stimulus": 78, "trial": 68, "rt": 831, "response": "Alpha"}, "69": {"stimulus": 66, "trial": 69, "rt": 742, "response": "Alpha"}, "80": {"stimulus": 44, "trial": 80, "rt": 822, "response": "Beta"}, "52": {"stimulus": 57, "trial": 52, "rt": 865, "response": "Alpha"}, "53": {"stimulus": 19, "trial": 53, "rt": 902, "response": "Beta"}, "24": {"stimulus": 63, "trial": 24, "rt": 827, "response": "Beta"}, "25": {"stimulus": 22, "trial": 25, "rt": 1084, "response": "Alpha"}, "26": {"stimulus": 40, "trial": 26, "rt": 880, "response": "Alpha"}, "27": {"stimulus": 43, "trial": 27, "rt": 1262, "response": "Beta"}, "20": {"stimulus": 58, "trial": 20, "rt": 713, "response": "Alpha"}, "21": {"stimulus": 36, "trial": 21, "rt": 860, "response": "Beta"}, "22": {"stimulus": 8, "trial": 22, "rt": 1222, "response": "Beta"}, "23": {"stimulus": 65, "trial": 23, "rt": 1240, "response": "Alpha"}, "46": {"stimulus": 42, "trial": 46, "rt": 800, "response": "Alpha"}, "47": {"stimulus": 52, "trial": 47, "rt": 880, "response": "Alpha"}, "44": {"stimulus": 20, "trial": 44, "rt": 977, "response": "Beta"}, "45": {"stimulus": 25, "trial": 45, "rt": 1280, "response": "Alpha"}, "28": {"stimulus": 14, "trial": 28, "rt": 701, "response": "Alpha"}, "29": {"stimulus": 15, "trial": 29, "rt": 929, "response": "Alpha"}, "40": {"stimulus": 50, "trial": 40, "rt": 664, "response": "Alpha"}, "41": {"stimulus": 34, "trial": 41, "rt": 930, "response": "Alpha"}, "1": {"stimulus": 68, "trial": 1, "rt": 1019, "response": "Alpha"}, "0": {"stimulus": 16, "trial": 0, "rt": 4350, "response": "Alpha"}, "3": {"stimulus": 11, "trial": 3, "rt": 1481, "response": "Alpha"}, "2": {"stimulus": 41, "trial": 2, "rt": 928, "response": "Alpha"}, "5": {"stimulus": 48, "trial": 5, "rt": 1110, "response": "Alpha"}, "4": {"stimulus": 12, "trial": 4, "rt": 4589, "response": "Alpha"}, "7": {"stimulus": 1, "trial": 7, "rt": 2337, "response": "Beta"}, "6": {"stimulus": 24, "trial": 6, "rt": 1792, "response": "Beta"}, "9": {"stimulus": 26, "trial": 9, "rt": 1190, "response": "Beta"}, "8": {"stimulus": 39, "trial": 8, "rt": 1012, "response": "Alpha"}, "78": {"stimulus": 76, "trial": 78, "rt": 847, "response": "Alpha"}, "51": {"stimulus": 45, "trial": 51, "rt": 835, "response": "Beta"}, "39": {"stimulus": 71, "trial": 39, "rt": 1250, "response": "Beta"}, "65": {"stimulus": 2, "trial": 65, "rt": 1845, "response": "Beta"}, "76": {"stimulus": 33, "trial": 76, "rt": 476, "response": "Alpha"}, "75": {"stimulus": 17, "trial": 75, "rt": 1766, "response": "Beta"}, "38": {"stimulus": 6, "trial": 38, "rt": 642, "response": "Alpha"}, "73": {"stimulus": 67, "trial": 73, "rt": 659, "response": "Alpha"}, "72": {"stimulus": 13, "trial": 72, "rt": 743, "response": "Alpha"}, "71": {"stimulus": 73, "trial": 71, "rt": 1745, "response": "Beta"}, "70": {"stimulus": 28, "trial": 70, "rt": 930, "response": "Beta"}, "59": {"stimulus": 60, "trial": 59, "rt": 1059, "response": "Alpha"}, "79": {"stimulus": 80, "trial": 79, "rt": 1252, "response": "Beta"}, "58": {"stimulus": 69, "trial": 58, "rt": 1005, "response": "Alpha"}, "11": {"stimulus": 46, "trial": 11, "rt": 2117, "response": "Beta"}, "10": {"stimulus": 32, "trial": 10, "rt": 747, "response": "Alpha"}, "13": {"stimulus": 5, "trial": 13, "rt": 762, "response": "Alpha"}, "12": {"stimulus": 51, "trial": 12, "rt": 799, "response": "Alpha"}, "15": {"stimulus": 59, "trial": 15, "rt": 732, "response": "Alpha"}, "14": {"stimulus": 55, "trial": 14, "rt": 863, "response": "Beta"}, "17": {"stimulus": 30, "trial": 17, "rt": 825, "response": "Alpha"}, "16": {"stimulus": 75, "trial": 16, "rt": 833, "response": "Alpha"}, "19": {"stimulus": 21, "trial": 19, "rt": 657, "response": "Alpha"}, "18": {"stimulus": 72, "trial": 18, "rt": 813, "response": "Beta"}, "31": {"stimulus": 54, "trial": 31, "rt": 999, "response": "Beta"}, "30": {"stimulus": 4, "trial": 30, "rt": 862, "response": "Alpha"}, "37": {"stimulus": 10, "trial": 37, "rt": 891, "response": "Beta"}, "36": {"stimulus": 9, "trial": 36, "rt": 820, "response": "Beta"}, "35": {"stimulus": 27, "trial": 35, "rt": 993, "response": "Beta"}, "34": {"stimulus": 53, "trial": 34, "rt": 1048, "response": "Beta"}, "33": {"stimulus": 64, "trial": 33, "rt": 1433, "response": "Beta"}, "55": {"stimulus": 7, "trial": 55, "rt": 1024, "response": "Alpha"}, "74": {"stimulus": 56, "trial": 74, "rt": 875, "response": "Beta"}, "32": {"stimulus": 61, "trial": 32, "rt": 1897, "response": "Alpha"}, "57": {"stimulus": 79, "trial": 57, "rt": 1204, "response": "Alpha"}, "50": {"stimulus": 49, "trial": 50, "rt": 927, "response": "Alpha"}}}