{"generation": {"1": {"stimulus": 7, "trial": 1, "rt": 13857}, "0": {"stimulus": 48, "trial": 0, "rt": 13906}, "3": {"stimulus": 80, "trial": 3, "rt": 6469}, "2": {"stimulus": 8, "trial": 2, "rt": 32981}}, "info": {"finish": 1482175418118, "participant": 69, "exposed": true, "lab": false, "start": 1482174925175, "counterbalance": 5, "condition": "Middle", "browser": {"platform": "Win32", "userAgent": "Mozilla/5.0 (Windows NT 10.0; Win64; x64) AppleWebKit/537.36 (KHTML, like Gecko) Chrome/55.0.2883.87 Safari/537.36"}}, "experiment": {"Paradigm": "TACL", "Stimuli": "Size-Color Squares", "Experiment": "Generating-Categories"}, "observation": {"11": {"stimulus": 32, "trial": 11, "rt": 1120}, "10": {"stimulus": 30, "trial": 10, "rt": 1210}, "1": {"stimulus": 50, "trial": 1, "rt": 1931}, "0": {"stimulus": 30, "trial": 0, "rt": 2664}, "3": {"stimulus": 48, "trial": 3, "rt": 1411}, "2": {"stimulus": 32, "trial": 2, "rt": 1590}, "5": {"stimulus": 30, "trial": 5, "rt": 1169}, "4": {"stimulus": 32, "trial": 4, "rt": 1290}, "7": {"stimulus": 50, "trial": 7, "rt": 1047}, "6": {"stimulus": 48, "trial": 6, "rt": 1075}, "9": {"stimulus": 48, "trial": 9, "rt": 1066}, "8": {"stimulus": 50, "trial": 8, "rt": 1031}}, "generalization": {"56": {"stimulus": 3, "trial": 56, "rt": 574, "response": "Alpha"}, "77": {"stimulus": 62, "trial": 77, "rt": 1237, "response": "Beta"}, "54": {"stimulus": 79, "trial": 54, "rt": 1198, "response": "Beta"}, "42": {"stimulus": 61, "trial": 42, "rt": 548, "response": "Beta"}, "48": {"stimulus": 73, "trial": 48, "rt": 587, "response": "Alpha"}, "43": {"stimulus": 45, "trial": 43, "rt": 881, "response": "Alpha"}, "60": {"stimulus": 50, "trial": 60, "rt": 12604, "response": "Alpha"}, "61": {"stimulus": 5, "trial": 61, "rt": 2068, "response": "Alpha"}, "62": {"stimulus": 13, "trial": 62, "rt": 659, "response": "Alpha"}, "63": {"stimulus": 77, "trial": 63, "rt": 678, "response": "Alpha"}, "64": {"stimulus": 19, "trial": 64, "rt": 753, "response": "Alpha"}, "49": {"stimulus": 1, "trial": 49, "rt": 594, "response": "Alpha"}, "66": {"stimulus": 31, "trial": 66, "rt": 659, "response": "Alpha"}, "67": {"stimulus": 6, "trial": 67, "rt": 866, "response": "Alpha"}, "68": {"stimulus": 63, "trial": 68, "rt": 746, "response": "Alpha"}, "69": {"stimulus": 80, "trial": 69, "rt": 1003, "response": "Beta"}, "80": {"stimulus": 51, "trial": 80, "rt": 859, "response": "Alpha"}, "52": {"stimulus": 38, "trial": 52, "rt": 598, "response": "Alpha"}, "53": {"stimulus": 48, "trial": 53, "rt": 707, "response": "Alpha"}, "24": {"stimulus": 72, "trial": 24, "rt": 584, "response": "Alpha"}, "25": {"stimulus": 26, "trial": 25, "rt": 1030, "response": "Beta"}, "26": {"stimulus": 60, "trial": 26, "rt": 1038, "response": "Alpha"}, "27": {"stimulus": 12, "trial": 27, "rt": 47264, "response": "Alpha"}, "20": {"stimulus": 71, "trial": 20, "rt": 951, "response": "Beta"}, "21": {"stimulus": 76, "trial": 21, "rt": 910, "response": "Alpha"}, "22": {"stimulus": 34, "trial": 22, "rt": 1118, "response": "Beta"}, "23": {"stimulus": 65, "trial": 23, "rt": 807, "response": "Alpha"}, "46": {"stimulus": 30, "trial": 46, "rt": 650, "response": "Alpha"}, "47": {"stimulus": 23, "trial": 47, "rt": 757, "response": "Alpha"}, "44": {"stimulus": 0, "trial": 44, "rt": 24094, "response": "Alpha"}, "45": {"stimulus": 24, "trial": 45, "rt": 844, "response": "Alpha"}, "28": {"stimulus": 22, "trial": 28, "rt": 853, "response": "Alpha"}, "29": {"stimulus": 2, "trial": 29, "rt": 754, "response": "Alpha"}, "40": {"stimulus": 56, "trial": 40, "rt": 526, "response": "Alpha"}, "41": {"stimulus": 44, "trial": 41, "rt": 950, "response": "Beta"}, "1": {"stimulus": 43, "trial": 1, "rt": 2194, "response": "Alpha"}, "0": {"stimulus": 46, "trial": 0, "rt": 1902, "response": "Alpha"}, "3": {"stimulus": 4, "trial": 3, "rt": 1506, "response": "Beta"}, "2": {"stimulus": 28, "trial": 2, "rt": 1034, "response": "Alpha"}, "5": {"stimulus": 75, "trial": 5, "rt": 616, "response": "Alpha"}, "4": {"stimulus": 57, "trial": 4, "rt": 75718, "response": "Alpha"}, "7": {"stimulus": 11, "trial": 7, "rt": 1194, "response": "Alpha"}, "6": {"stimulus": 59, "trial": 6, "rt": 562, "response": "Alpha"}, "9": {"stimulus": 39, "trial": 9, "rt": 529, "response": "Alpha"}, "8": {"stimulus": 58, "trial": 8, "rt": 632, "response": "Alpha"}, "78": {"stimulus": 52, "trial": 78, "rt": 1054, "response": "Alpha"}, "51": {"stimulus": 74, "trial": 51, "rt": 626, "response": "Alpha"}, "39": {"stimulus": 66, "trial": 39, "rt": 526, "response": "Alpha"}, "65": {"stimulus": 15, "trial": 65, "rt": 831, "response": "Alpha"}, "76": {"stimulus": 20, "trial": 76, "rt": 644, "response": "Alpha"}, "75": {"stimulus": 37, "trial": 75, "rt": 1068, "response": "Alpha"}, "38": {"stimulus": 54, "trial": 38, "rt": 885, "response": "Alpha"}, "73": {"stimulus": 40, "trial": 73, "rt": 901, "response": "Alpha"}, "72": {"stimulus": 33, "trial": 72, "rt": 668, "response": "Alpha"}, "71": {"stimulus": 18, "trial": 71, "rt": 570, "response": "Alpha"}, "70": {"stimulus": 47, "trial": 70, "rt": 953, "response": "Alpha"}, "59": {"stimulus": 53, "trial": 59, "rt": 11293, "response": "Beta"}, "79": {"stimulus": 8, "trial": 79, "rt": 1002, "response": "Beta"}, "58": {"stimulus": 17, "trial": 58, "rt": 1078, "response": "Beta"}, "11": {"stimulus": 70, "trial": 11, "rt": 978, "response": "Beta"}, "10": {"stimulus": 27, "trial": 10, "rt": 507, "response": "Alpha"}, "13": {"stimulus": 29, "trial": 13, "rt": 1016, "response": "Alpha"}, "12": {"stimulus": 68, "trial": 12, "rt": 1261, "response": "Alpha"}, "15": {"stimulus": 10, "trial": 15, "rt": 1689, "response": "Alpha"}, "14": {"stimulus": 35, "trial": 14, "rt": 854, "response": "Beta"}, "17": {"stimulus": 55, "trial": 17, "rt": 1244, "response": "Alpha"}, "16": {"stimulus": 42, "trial": 16, "rt": 753, "response": "Alpha"}, "19": {"stimulus": 67, "trial": 19, "rt": 613, "response": "Alpha"}, "18": {"stimulus": 16, "trial": 18, "rt": 54604, "response": "Alpha"}, "31": {"stimulus": 78, "trial": 31, "rt": 506, "response": "Alpha"}, "30": {"stimulus": 21, "trial": 30, "rt": 1039, "response": "Alpha"}, "37": {"stimulus": 25, "trial": 37, "rt": 1312, "response": "Beta"}, "36": {"stimulus": 32, "trial": 36, "rt": 523, "response": "Alpha"}, "35": {"stimulus": 36, "trial": 35, "rt": 536, "response": "Alpha"}, "34": {"stimulus": 14, "trial": 34, "rt": 451, "response": "Alpha"}, "33": {"stimulus": 64, "trial": 33, "rt": 672, "response": "Alpha"}, "55": {"stimulus": 69, "trial": 55, "rt": 1182, "response": "Alpha"}, "74": {"stimulus": 49, "trial": 74, "rt": 38477, "response": "Alpha"}, "32": {"stimulus": 41, "trial": 32, "rt": 13555, "response": "Alpha"}, "57": {"stimulus": 7, "trial": 57, "rt": 1219, "response": "Beta"}, "50": {"stimulus": 9, "trial": 50, "rt": 616, "response": "Alpha"}}}