{"generation": {"1": {"stimulus": 7, "trial": 1, "rt": 6310}, "0": {"stimulus": 8, "trial": 0, "rt": 8155}, "3": {"stimulus": 2, "trial": 3, "rt": 2754}, "2": {"stimulus": 5, "trial": 2, "rt": 2384}}, "info": {"finish": 1482174822680, "participant": 7, "exposed": true, "lab": false, "start": 1482174409650, "counterbalance": 0, "condition": "Middle", "browser": {"platform": "Win32", "userAgent": "Mozilla/5.0 (Windows NT 6.1; WOW64) AppleWebKit/537.36 (KHTML, like Gecko) Chrome/55.0.2883.87 Safari/537.36"}}, "experiment": {"Paradigm": "TACL", "Stimuli": "Size-Color Squares", "Experiment": "Generating-Categories"}, "observation": {"11": {"stimulus": 32, "trial": 11, "rt": 669}, "10": {"stimulus": 50, "trial": 10, "rt": 697}, "1": {"stimulus": 30, "trial": 1, "rt": 1846}, "0": {"stimulus": 50, "trial": 0, "rt": 4858}, "3": {"stimulus": 48, "trial": 3, "rt": 1170}, "2": {"stimulus": 32, "trial": 2, "rt": 1161}, "5": {"stimulus": 48, "trial": 5, "rt": 850}, "4": {"stimulus": 50, "trial": 4, "rt": 916}, "7": {"stimulus": 32, "trial": 7, "rt": 802}, "6": {"stimulus": 30, "trial": 6, "rt": 811}, "9": {"stimulus": 30, "trial": 9, "rt": 757}, "8": {"stimulus": 48, "trial": 8, "rt": 754}}, "generalization": {"56": {"stimulus": 17, "trial": 56, "rt": 634, "response": "Alpha"}, "77": {"stimulus": 10, "trial": 77, "rt": 547, "response": "Alpha"}, "54": {"stimulus": 30, "trial": 54, "rt": 434, "response": "Alpha"}, "42": {"stimulus": 0, "trial": 42, "rt": 2569, "response": "Alpha"}, "48": {"stimulus": 24, "trial": 48, "rt": 1862, "response": "Alpha"}, "43": {"stimulus": 20, "trial": 43, "rt": 2660, "response": "Alpha"}, "60": {"stimulus": 27, "trial": 60, "rt": 8229, "response": "Alpha"}, "61": {"stimulus": 53, "trial": 61, "rt": 459, "response": "Alpha"}, "62": {"stimulus": 7, "trial": 62, "rt": 1420, "response": "Beta"}, "63": {"stimulus": 54, "trial": 63, "rt": 6618, "response": "Alpha"}, "64": {"stimulus": 77, "trial": 64, "rt": 545, "response": "Alpha"}, "49": {"stimulus": 50, "trial": 49, "rt": 1582, "response": "Alpha"}, "66": {"stimulus": 55, "trial": 66, "rt": 435, "response": "Alpha"}, "67": {"stimulus": 32, "trial": 67, "rt": 429, "response": "Alpha"}, "68": {"stimulus": 33, "trial": 68, "rt": 504, "response": "Alpha"}, "69": {"stimulus": 59, "trial": 69, "rt": 469, "response": "Alpha"}, "80": {"stimulus": 39, "trial": 80, "rt": 477, "response": "Alpha"}, "52": {"stimulus": 44, "trial": 52, "rt": 583, "response": "Alpha"}, "53": {"stimulus": 35, "trial": 53, "rt": 387, "response": "Alpha"}, "24": {"stimulus": 67, "trial": 24, "rt": 475, "response": "Alpha"}, "25": {"stimulus": 40, "trial": 25, "rt": 458, "response": "Alpha"}, "26": {"stimulus": 3, "trial": 26, "rt": 949, "response": "Beta"}, "27": {"stimulus": 62, "trial": 27, "rt": 434, "response": "Alpha"}, "20": {"stimulus": 21, "trial": 20, "rt": 515, "response": "Alpha"}, "21": {"stimulus": 47, "trial": 21, "rt": 441, "response": "Alpha"}, "22": {"stimulus": 74, "trial": 22, "rt": 453, "response": "Alpha"}, "23": {"stimulus": 64, "trial": 23, "rt": 443, "response": "Alpha"}, "46": {"stimulus": 16, "trial": 46, "rt": 2044, "response": "Alpha"}, "47": {"stimulus": 69, "trial": 47, "rt": 1361, "response": "Alpha"}, "44": {"stimulus": 2, "trial": 44, "rt": 939, "response": "Beta"}, "45": {"stimulus": 11, "trial": 45, "rt": 2038, "response": "Alpha"}, "28": {"stimulus": 1, "trial": 28, "rt": 787, "response": "Beta"}, "29": {"stimulus": 51, "trial": 29, "rt": 523, "response": "Alpha"}, "40": {"stimulus": 34, "trial": 40, "rt": 376, "response": "Alpha"}, "41": {"stimulus": 12, "trial": 41, "rt": 372, "response": "Alpha"}, "1": {"stimulus": 13, "trial": 1, "rt": 1724, "response": "Alpha"}, "0": {"stimulus": 58, "trial": 0, "rt": 1729, "response": "Alpha"}, "3": {"stimulus": 46, "trial": 3, "rt": 485, "response": "Alpha"}, "2": {"stimulus": 48, "trial": 2, "rt": 503, "response": "Alpha"}, "5": {"stimulus": 31, "trial": 5, "rt": 467, "response": "Alpha"}, "4": {"stimulus": 56, "trial": 4, "rt": 467, "response": "Alpha"}, "7": {"stimulus": 49, "trial": 7, "rt": 443, "response": "Alpha"}, "6": {"stimulus": 42, "trial": 6, "rt": 491, "response": "Alpha"}, "9": {"stimulus": 15, "trial": 9, "rt": 633, "response": "Alpha"}, "8": {"stimulus": 75, "trial": 8, "rt": 522, "response": "Alpha"}, "78": {"stimulus": 70, "trial": 78, "rt": 530, "response": "Alpha"}, "51": {"stimulus": 66, "trial": 51, "rt": 1562, "response": "Alpha"}, "39": {"stimulus": 63, "trial": 39, "rt": 379, "response": "Alpha"}, "65": {"stimulus": 22, "trial": 65, "rt": 435, "response": "Alpha"}, "76": {"stimulus": 14, "trial": 76, "rt": 499, "response": "Alpha"}, "75": {"stimulus": 71, "trial": 75, "rt": 570, "response": "Alpha"}, "38": {"stimulus": 45, "trial": 38, "rt": 417, "response": "Alpha"}, "73": {"stimulus": 57, "trial": 73, "rt": 516, "response": "Alpha"}, "72": {"stimulus": 26, "trial": 72, "rt": 455, "response": "Alpha"}, "71": {"stimulus": 79, "trial": 71, "rt": 486, "response": "Alpha"}, "70": {"stimulus": 28, "trial": 70, "rt": 482, "response": "Alpha"}, "59": {"stimulus": 38, "trial": 59, "rt": 2251, "response": "Alpha"}, "79": {"stimulus": 76, "trial": 79, "rt": 513, "response": "Alpha"}, "58": {"stimulus": 68, "trial": 58, "rt": 731, "response": "Alpha"}, "11": {"stimulus": 18, "trial": 11, "rt": 490, "response": "Alpha"}, "10": {"stimulus": 5, "trial": 10, "rt": 843, "response": "Beta"}, "13": {"stimulus": 6, "trial": 13, "rt": 642, "response": "Beta"}, "12": {"stimulus": 19, "trial": 12, "rt": 426, "response": "Alpha"}, "15": {"stimulus": 60, "trial": 15, "rt": 500, "response": "Alpha"}, "14": {"stimulus": 41, "trial": 14, "rt": 554, "response": "Alpha"}, "17": {"stimulus": 23, "trial": 17, "rt": 514, "response": "Alpha"}, "16": {"stimulus": 8, "trial": 16, "rt": 874, "response": "Beta"}, "19": {"stimulus": 52, "trial": 19, "rt": 507, "response": "Alpha"}, "18": {"stimulus": 36, "trial": 18, "rt": 499, "response": "Alpha"}, "31": {"stimulus": 61, "trial": 31, "rt": 411, "response": "Alpha"}, "30": {"stimulus": 37, "trial": 30, "rt": 411, "response": "Alpha"}, "37": {"stimulus": 29, "trial": 37, "rt": 465, "response": "Alpha"}, "36": {"stimulus": 73, "trial": 36, "rt": 436, "response": "Alpha"}, "35": {"stimulus": 9, "trial": 35, "rt": 697, "response": "Alpha"}, "34": {"stimulus": 43, "trial": 34, "rt": 435, "response": "Alpha"}, "33": {"stimulus": 65, "trial": 33, "rt": 426, "response": "Alpha"}, "55": {"stimulus": 72, "trial": 55, "rt": 403, "response": "Alpha"}, "74": {"stimulus": 25, "trial": 74, "rt": 490, "response": "Alpha"}, "32": {"stimulus": 78, "trial": 32, "rt": 419, "response": "Alpha"}, "57": {"stimulus": 4, "trial": 57, "rt": 443, "response": "Alpha"}, "50": {"stimulus": 80, "trial": 50, "rt": 1300, "response": "Alpha"}}}