{"generation": {"1": {"stimulus": 80, "trial": 1, "rt": 5730}, "0": {"stimulus": 54, "trial": 0, "rt": 8829}, "3": {"stimulus": 25, "trial": 3, "rt": 4545}, "2": {"stimulus": 0, "trial": 2, "rt": 13791}}, "info": {"finish": 1482175499715, "participant": 70, "exposed": true, "lab": false, "start": 1482174946024, "counterbalance": 7, "condition": "Middle", "browser": {"platform": "MacIntel", "userAgent": "Mozilla/5.0 (Macintosh; Intel Mac OS X 10_11_1) AppleWebKit/537.36 (KHTML, like Gecko) Chrome/54.0.2840.87 Safari/537.36"}}, "experiment": {"Paradigm": "TACL", "Stimuli": "Size-Color Squares", "Experiment": "Generating-Categories"}, "observation": {"11": {"stimulus": 50, "trial": 11, "rt": 1072}, "10": {"stimulus": 30, "trial": 10, "rt": 1516}, "1": {"stimulus": 50, "trial": 1, "rt": 1780}, "0": {"stimulus": 48, "trial": 0, "rt": 23374}, "3": {"stimulus": 32, "trial": 3, "rt": 2992}, "2": {"stimulus": 30, "trial": 2, "rt": 1286}, "5": {"stimulus": 50, "trial": 5, "rt": 3443}, "4": {"stimulus": 32, "trial": 4, "rt": 1852}, "7": {"stimulus": 30, "trial": 7, "rt": 2038}, "6": {"stimulus": 48, "trial": 6, "rt": 1255}, "9": {"stimulus": 32, "trial": 9, "rt": 1346}, "8": {"stimulus": 48, "trial": 8, "rt": 2023}}, "generalization": {"56": {"stimulus": 38, "trial": 56, "rt": 1915, "response": "Alpha"}, "77": {"stimulus": 79, "trial": 77, "rt": 903, "response": "Alpha"}, "54": {"stimulus": 17, "trial": 54, "rt": 1986, "response": "Beta"}, "42": {"stimulus": 61, "trial": 42, "rt": 2034, "response": "Beta"}, "48": {"stimulus": 41, "trial": 48, "rt": 859, "response": "Alpha"}, "43": {"stimulus": 30, "trial": 43, "rt": 797, "response": "Alpha"}, "60": {"stimulus": 37, "trial": 60, "rt": 1084, "response": "Beta"}, "61": {"stimulus": 12, "trial": 61, "rt": 2909, "response": "Alpha"}, "62": {"stimulus": 35, "trial": 62, "rt": 818, "response": "Beta"}, "63": {"stimulus": 21, "trial": 63, "rt": 1373, "response": "Alpha"}, "64": {"stimulus": 65, "trial": 64, "rt": 1973, "response": "Alpha"}, "49": {"stimulus": 8, "trial": 49, "rt": 2098, "response": "Beta"}, "66": {"stimulus": 74, "trial": 66, "rt": 1913, "response": "Beta"}, "67": {"stimulus": 78, "trial": 67, "rt": 1601, "response": "Alpha"}, "68": {"stimulus": 32, "trial": 68, "rt": 8025, "response": "Alpha"}, "69": {"stimulus": 50, "trial": 69, "rt": 2333, "response": "Alpha"}, "80": {"stimulus": 64, "trial": 80, "rt": 567, "response": "Beta"}, "52": {"stimulus": 27, "trial": 52, "rt": 6386, "response": "Beta"}, "53": {"stimulus": 75, "trial": 53, "rt": 2363, "response": "Alpha"}, "24": {"stimulus": 45, "trial": 24, "rt": 6706, "response": "Alpha"}, "25": {"stimulus": 40, "trial": 25, "rt": 7112, "response": "Alpha"}, "26": {"stimulus": 10, "trial": 26, "rt": 828, "response": "Beta"}, "27": {"stimulus": 77, "trial": 27, "rt": 1383, "response": "Alpha"}, "20": {"stimulus": 31, "trial": 20, "rt": 647, "response": "Alpha"}, "21": {"stimulus": 49, "trial": 21, "rt": 821, "response": "Alpha"}, "22": {"stimulus": 2, "trial": 22, "rt": 5177, "response": "Beta"}, "23": {"stimulus": 63, "trial": 23, "rt": 5044, "response": "Alpha"}, "46": {"stimulus": 51, "trial": 46, "rt": 1162, "response": "Alpha"}, "47": {"stimulus": 59, "trial": 47, "rt": 618, "response": "Alpha"}, "44": {"stimulus": 11, "trial": 44, "rt": 758, "response": "Beta"}, "45": {"stimulus": 58, "trial": 45, "rt": 1314, "response": "Alpha"}, "28": {"stimulus": 60, "trial": 28, "rt": 4854, "response": "Alpha"}, "29": {"stimulus": 15, "trial": 29, "rt": 659, "response": "Beta"}, "40": {"stimulus": 26, "trial": 40, "rt": 657, "response": "Beta"}, "41": {"stimulus": 72, "trial": 41, "rt": 1152, "response": "Beta"}, "1": {"stimulus": 66, "trial": 1, "rt": 801, "response": "Alpha"}, "0": {"stimulus": 7, "trial": 0, "rt": 2990, "response": "Beta"}, "3": {"stimulus": 42, "trial": 3, "rt": 936, "response": "Alpha"}, "2": {"stimulus": 43, "trial": 2, "rt": 1225, "response": "Beta"}, "5": {"stimulus": 23, "trial": 5, "rt": 749, "response": "Alpha"}, "4": {"stimulus": 69, "trial": 4, "rt": 717, "response": "Beta"}, "7": {"stimulus": 6, "trial": 7, "rt": 1090, "response": "Beta"}, "6": {"stimulus": 80, "trial": 6, "rt": 1419, "response": "Beta"}, "9": {"stimulus": 28, "trial": 9, "rt": 2297, "response": "Beta"}, "8": {"stimulus": 67, "trial": 8, "rt": 651, "response": "Alpha"}, "78": {"stimulus": 25, "trial": 78, "rt": 1824, "response": "Beta"}, "51": {"stimulus": 36, "trial": 51, "rt": 4229, "response": "Beta"}, "39": {"stimulus": 9, "trial": 39, "rt": 783, "response": "Beta"}, "65": {"stimulus": 52, "trial": 65, "rt": 1509, "response": "Alpha"}, "76": {"stimulus": 55, "trial": 76, "rt": 1176, "response": "Beta"}, "75": {"stimulus": 1, "trial": 75, "rt": 2116, "response": "Beta"}, "38": {"stimulus": 4, "trial": 38, "rt": 777, "response": "Alpha"}, "73": {"stimulus": 18, "trial": 73, "rt": 1398, "response": "Beta"}, "72": {"stimulus": 54, "trial": 72, "rt": 1114, "response": "Beta"}, "71": {"stimulus": 53, "trial": 71, "rt": 2144, "response": "Beta"}, "70": {"stimulus": 29, "trial": 70, "rt": 2443, "response": "Beta"}, "59": {"stimulus": 0, "trial": 59, "rt": 2105, "response": "Beta"}, "79": {"stimulus": 73, "trial": 79, "rt": 1538, "response": "Beta"}, "58": {"stimulus": 56, "trial": 58, "rt": 1883, "response": "Beta"}, "11": {"stimulus": 19, "trial": 11, "rt": 1763, "response": "Alpha"}, "10": {"stimulus": 76, "trial": 10, "rt": 2588, "response": "Alpha"}, "13": {"stimulus": 22, "trial": 13, "rt": 1913, "response": "Alpha"}, "12": {"stimulus": 48, "trial": 12, "rt": 982, "response": "Alpha"}, "15": {"stimulus": 33, "trial": 15, "rt": 1099, "response": "Alpha"}, "14": {"stimulus": 44, "trial": 14, "rt": 705, "response": "Beta"}, "17": {"stimulus": 13, "trial": 17, "rt": 1315, "response": "Beta"}, "16": {"stimulus": 70, "trial": 16, "rt": 1547, "response": "Alpha"}, "19": {"stimulus": 20, "trial": 19, "rt": 977, "response": "Alpha"}, "18": {"stimulus": 62, "trial": 18, "rt": 728, "response": "Beta"}, "31": {"stimulus": 46, "trial": 31, "rt": 1013, "response": "Beta"}, "30": {"stimulus": 24, "trial": 30, "rt": 638, "response": "Beta"}, "37": {"stimulus": 71, "trial": 37, "rt": 2547, "response": "Beta"}, "36": {"stimulus": 68, "trial": 36, "rt": 760, "response": "Alpha"}, "35": {"stimulus": 16, "trial": 35, "rt": 3634, "response": "Beta"}, "34": {"stimulus": 3, "trial": 34, "rt": 1569, "response": "Beta"}, "33": {"stimulus": 57, "trial": 33, "rt": 906, "response": "Alpha"}, "55": {"stimulus": 47, "trial": 55, "rt": 2659, "response": "Beta"}, "74": {"stimulus": 14, "trial": 74, "rt": 2362, "response": "Alpha"}, "32": {"stimulus": 5, "trial": 32, "rt": 1403, "response": "Alpha"}, "57": {"stimulus": 34, "trial": 57, "rt": 603, "response": "Beta"}, "50": {"stimulus": 39, "trial": 50, "rt": 753, "response": "Alpha"}}}