{"generation": {"1": {"stimulus": 1, "trial": 1, "rt": 9352}, "0": {"stimulus": 0, "trial": 0, "rt": 9071}, "3": {"stimulus": 7, "trial": 3, "rt": 3968}, "2": {"stimulus": 3, "trial": 2, "rt": 7085}}, "info": {"participant": 71, "exposed": true, "lab": false, "start": 1482174980201, "counterbalance": 0, "condition": "Middle", "browser": {"platform": "Win32", "userAgent": "Mozilla/5.0 (Windows NT 6.1; WOW64) AppleWebKit/537.36 (KHTML, like Gecko) Chrome/55.0.2883.87 Safari/537.36"}}, "experiment": {"Paradigm": "TACL", "Stimuli": "Size-Color Squares", "Experiment": "Generating-Categories"}, "observation": {"11": {"stimulus": 32, "trial": 11, "rt": 876}, "10": {"stimulus": 50, "trial": 10, "rt": 910}, "1": {"stimulus": 32, "trial": 1, "rt": 1326}, "0": {"stimulus": 50, "trial": 0, "rt": 1841}, "3": {"stimulus": 48, "trial": 3, "rt": 2099}, "2": {"stimulus": 30, "trial": 2, "rt": 912}, "5": {"stimulus": 32, "trial": 5, "rt": 1080}, "4": {"stimulus": 48, "trial": 4, "rt": 966}, "7": {"stimulus": 50, "trial": 7, "rt": 876}, "6": {"stimulus": 30, "trial": 6, "rt": 1110}, "9": {"stimulus": 30, "trial": 9, "rt": 895}, "8": {"stimulus": 48, "trial": 8, "rt": 848}}, "generalization": {"56": {"stimulus": 79, "trial": 56, "rt": 360, "response": "Alpha"}, "77": {"stimulus": 32, "trial": 77, "rt": 608, "response": "Alpha"}, "54": {"stimulus": 49, "trial": 54, "rt": 486, "response": "Alpha"}, "42": {"stimulus": 27, "trial": 42, "rt": 584, "response": "Alpha"}, "48": {"stimulus": 70, "trial": 48, "rt": 397, "response": "Alpha"}, "43": {"stimulus": 15, "trial": 43, "rt": 887, "response": "Beta"}, "60": {"stimulus": 34, "trial": 60, "rt": 456, "response": "Alpha"}, "61": {"stimulus": 28, "trial": 61, "rt": 530, "response": "Alpha"}, "62": {"stimulus": 31, "trial": 62, "rt": 484, "response": "Alpha"}, "63": {"stimulus": 16, "trial": 63, "rt": 1164, "response": "Beta"}, "64": {"stimulus": 76, "trial": 64, "rt": 479, "response": "Alpha"}, "49": {"stimulus": 59, "trial": 49, "rt": 389, "response": "Alpha"}, "66": {"stimulus": 19, "trial": 66, "rt": 872, "response": "Beta"}, "67": {"stimulus": 45, "trial": 67, "rt": 428, "response": "Alpha"}, "68": {"stimulus": 20, "trial": 68, "rt": 773, "response": "Beta"}, "69": {"stimulus": 44, "trial": 69, "rt": 473, "response": "Alpha"}, "80": {"stimulus": 17, "trial": 80, "rt": 1143, "response": "Beta"}, "52": {"stimulus": 73, "trial": 52, "rt": 562, "response": "Alpha"}, "53": {"stimulus": 1, "trial": 53, "rt": 824, "response": "Beta"}, "24": {"stimulus": 65, "trial": 24, "rt": 894, "response": "Alpha"}, "25": {"stimulus": 39, "trial": 25, "rt": 472, "response": "Alpha"}, "26": {"stimulus": 30, "trial": 26, "rt": 585, "response": "Alpha"}, "27": {"stimulus": 78, "trial": 27, "rt": 646, "response": "Alpha"}, "20": {"stimulus": 24, "trial": 20, "rt": 816, "response": "Alpha"}, "21": {"stimulus": 33, "trial": 21, "rt": 524, "response": "Alpha"}, "22": {"stimulus": 69, "trial": 22, "rt": 660, "response": "Alpha"}, "23": {"stimulus": 2, "trial": 23, "rt": 988, "response": "Beta"}, "46": {"stimulus": 9, "trial": 46, "rt": 1468, "response": "Beta"}, "47": {"stimulus": 37, "trial": 47, "rt": 514, "response": "Alpha"}, "44": {"stimulus": 26, "trial": 44, "rt": 1149, "response": "Alpha"}, "45": {"stimulus": 43, "trial": 45, "rt": 459, "response": "Alpha"}, "28": {"stimulus": 21, "trial": 28, "rt": 747, "response": "Alpha"}, "29": {"stimulus": 22, "trial": 29, "rt": 452, "response": "Beta"}, "40": {"stimulus": 67, "trial": 40, "rt": 414, "response": "Alpha"}, "41": {"stimulus": 38, "trial": 41, "rt": 562, "response": "Alpha"}, "1": {"stimulus": 36, "trial": 1, "rt": 575, "response": "Alpha"}, "0": {"stimulus": 55, "trial": 0, "rt": 1466, "response": "Alpha"}, "3": {"stimulus": 23, "trial": 3, "rt": 1108, "response": "Alpha"}, "2": {"stimulus": 4, "trial": 2, "rt": 731, "response": "Beta"}, "5": {"stimulus": 18, "trial": 5, "rt": 1043, "response": "Alpha"}, "4": {"stimulus": 56, "trial": 4, "rt": 785, "response": "Alpha"}, "7": {"stimulus": 3, "trial": 7, "rt": 662, "response": "Beta"}, "6": {"stimulus": 41, "trial": 6, "rt": 676, "response": "Alpha"}, "9": {"stimulus": 74, "trial": 9, "rt": 568, "response": "Alpha"}, "8": {"stimulus": 61, "trial": 8, "rt": 530, "response": "Alpha"}, "78": {"stimulus": 58, "trial": 78, "rt": 421, "response": "Alpha"}, "51": {"stimulus": 50, "trial": 51, "rt": 358, "response": "Alpha"}, "39": {"stimulus": 71, "trial": 39, "rt": 422, "response": "Alpha"}, "65": {"stimulus": 25, "trial": 65, "rt": 553, "response": "Alpha"}, "76": {"stimulus": 10, "trial": 76, "rt": 666, "response": "Beta"}, "75": {"stimulus": 77, "trial": 75, "rt": 601, "response": "Alpha"}, "38": {"stimulus": 63, "trial": 38, "rt": 405, "response": "Alpha"}, "73": {"stimulus": 0, "trial": 73, "rt": 683, "response": "Beta"}, "72": {"stimulus": 6, "trial": 72, "rt": 799, "response": "Beta"}, "71": {"stimulus": 52, "trial": 71, "rt": 455, "response": "Alpha"}, "70": {"stimulus": 47, "trial": 70, "rt": 468, "response": "Alpha"}, "59": {"stimulus": 57, "trial": 59, "rt": 528, "response": "Alpha"}, "79": {"stimulus": 54, "trial": 79, "rt": 367, "response": "Alpha"}, "58": {"stimulus": 7, "trial": 58, "rt": 1387, "response": "Beta"}, "11": {"stimulus": 68, "trial": 11, "rt": 620, "response": "Alpha"}, "10": {"stimulus": 14, "trial": 10, "rt": 773, "response": "Beta"}, "13": {"stimulus": 5, "trial": 13, "rt": 715, "response": "Beta"}, "12": {"stimulus": 42, "trial": 12, "rt": 684, "response": "Alpha"}, "15": {"stimulus": 8, "trial": 15, "rt": 622, "response": "Beta"}, "14": {"stimulus": 72, "trial": 14, "rt": 756, "response": "Alpha"}, "17": {"stimulus": 60, "trial": 17, "rt": 492, "response": "Alpha"}, "16": {"stimulus": 62, "trial": 16, "rt": 778, "response": "Alpha"}, "19": {"stimulus": 46, "trial": 19, "rt": 568, "response": "Alpha"}, "18": {"stimulus": 64, "trial": 18, "rt": 761, "response": "Alpha"}, "31": {"stimulus": 12, "trial": 31, "rt": 599, "response": "Beta"}, "30": {"stimulus": 53, "trial": 30, "rt": 553, "response": "Alpha"}, "37": {"stimulus": 75, "trial": 37, "rt": 423, "response": "Alpha"}, "36": {"stimulus": 35, "trial": 36, "rt": 513, "response": "Alpha"}, "35": {"stimulus": 40, "trial": 35, "rt": 515, "response": "Alpha"}, "34": {"stimulus": 51, "trial": 34, "rt": 778, "response": "Alpha"}, "33": {"stimulus": 13, "trial": 33, "rt": 484, "response": "Alpha"}, "55": {"stimulus": 48, "trial": 55, "rt": 381, "response": "Alpha"}, "74": {"stimulus": 11, "trial": 74, "rt": 584, "response": "Beta"}, "32": {"stimulus": 29, "trial": 32, "rt": 700, "response": "Alpha"}, "57": {"stimulus": 80, "trial": 57, "rt": 413, "response": "Alpha"}, "50": {"stimulus": 66, "trial": 50, "rt": 353, "response": "Alpha"}}}3, "response": "Alpha"}}}