{"generation": {"1": {"stimulus": 0, "trial": 1, "rt": 7728}, "0": {"stimulus": 80, "trial": 0, "rt": 15444}, "3": {"stimulus": 8, "trial": 3, "rt": 14403}, "2": {"stimulus": 36, "trial": 2, "rt": 8974}}, "info": {"finish": 1482175327726, "participant": 72, "exposed": true, "lab": false, "start": 1482175017166, "counterbalance": 4, "condition": "Middle", "browser": {"platform": "Win32", "userAgent": "Mozilla/5.0 (Windows NT 10.0; WOW64) AppleWebKit/537.36 (KHTML, like Gecko) Chrome/55.0.2883.87 Safari/537.36"}}, "experiment": {"Paradigm": "TACL", "Stimuli": "Size-Color Squares", "Experiment": "Generating-Categories"}, "observation": {"11": {"stimulus": 32, "trial": 11, "rt": 2485}, "10": {"stimulus": 48, "trial": 10, "rt": 1499}, "1": {"stimulus": 48, "trial": 1, "rt": 2962}, "0": {"stimulus": 32, "trial": 0, "rt": 2731}, "3": {"stimulus": 30, "trial": 3, "rt": 1469}, "2": {"stimulus": 50, "trial": 2, "rt": 9144}, "5": {"stimulus": 30, "trial": 5, "rt": 1490}, "4": {"stimulus": 48, "trial": 4, "rt": 2308}, "7": {"stimulus": 50, "trial": 7, "rt": 2107}, "6": {"stimulus": 32, "trial": 6, "rt": 2122}, "9": {"stimulus": 30, "trial": 9, "rt": 1407}, "8": {"stimulus": 50, "trial": 8, "rt": 1695}}, "generalization": {"56": {"stimulus": 31, "trial": 56, "rt": 1301, "response": "Alpha"}, "77": {"stimulus": 46, "trial": 77, "rt": 2471, "response": "Beta"}, "54": {"stimulus": 52, "trial": 54, "rt": 1622, "response": "Beta"}, "42": {"stimulus": 32, "trial": 42, "rt": 1726, "response": "Beta"}, "48": {"stimulus": 17, "trial": 48, "rt": 1006, "response": "Beta"}, "43": {"stimulus": 77, "trial": 43, "rt": 838, "response": "Beta"}, "60": {"stimulus": 58, "trial": 60, "rt": 2041, "response": "Alpha"}, "61": {"stimulus": 48, "trial": 61, "rt": 2775, "response": "Alpha"}, "62": {"stimulus": 29, "trial": 62, "rt": 2679, "response": "Beta"}, "63": {"stimulus": 62, "trial": 63, "rt": 945, "response": "Beta"}, "64": {"stimulus": 25, "trial": 64, "rt": 857, "response": "Beta"}, "49": {"stimulus": 39, "trial": 49, "rt": 1251, "response": "Alpha"}, "66": {"stimulus": 54, "trial": 66, "rt": 2126, "response": "Beta"}, "67": {"stimulus": 59, "trial": 67, "rt": 1857, "response": "Beta"}, "68": {"stimulus": 74, "trial": 68, "rt": 2712, "response": "Beta"}, "69": {"stimulus": 15, "trial": 69, "rt": 3771, "response": "Beta"}, "80": {"stimulus": 5, "trial": 80, "rt": 2528, "response": "Alpha"}, "52": {"stimulus": 3, "trial": 52, "rt": 1775, "response": "Alpha"}, "53": {"stimulus": 70, "trial": 53, "rt": 1298, "response": "Beta"}, "24": {"stimulus": 33, "trial": 24, "rt": 942, "response": "Beta"}, "25": {"stimulus": 79, "trial": 25, "rt": 1388, "response": "Beta"}, "26": {"stimulus": 66, "trial": 26, "rt": 1233, "response": "Alpha"}, "27": {"stimulus": 42, "trial": 27, "rt": 1285, "response": "Beta"}, "20": {"stimulus": 72, "trial": 20, "rt": 725, "response": "Beta"}, "21": {"stimulus": 27, "trial": 21, "rt": 721, "response": "Beta"}, "22": {"stimulus": 47, "trial": 22, "rt": 1655, "response": "Beta"}, "23": {"stimulus": 35, "trial": 23, "rt": 1267, "response": "Beta"}, "46": {"stimulus": 65, "trial": 46, "rt": 1139, "response": "Beta"}, "47": {"stimulus": 75, "trial": 47, "rt": 1112, "response": "Beta"}, "44": {"stimulus": 71, "trial": 44, "rt": 986, "response": "Beta"}, "45": {"stimulus": 73, "trial": 45, "rt": 2613, "response": "Beta"}, "28": {"stimulus": 45, "trial": 28, "rt": 1194, "response": "Beta"}, "29": {"stimulus": 9, "trial": 29, "rt": 791, "response": "Beta"}, "40": {"stimulus": 61, "trial": 40, "rt": 1092, "response": "Beta"}, "41": {"stimulus": 7, "trial": 41, "rt": 899, "response": "Beta"}, "1": {"stimulus": 20, "trial": 1, "rt": 1618, "response": "Beta"}, "0": {"stimulus": 68, "trial": 0, "rt": 3312, "response": "Alpha"}, "3": {"stimulus": 38, "trial": 3, "rt": 1067, "response": "Beta"}, "2": {"stimulus": 53, "trial": 2, "rt": 1398, "response": "Beta"}, "5": {"stimulus": 43, "trial": 5, "rt": 3704, "response": "Alpha"}, "4": {"stimulus": 1, "trial": 4, "rt": 1074, "response": "Beta"}, "7": {"stimulus": 16, "trial": 7, "rt": 1373, "response": "Beta"}, "6": {"stimulus": 76, "trial": 6, "rt": 1725, "response": "Alpha"}, "9": {"stimulus": 51, "trial": 9, "rt": 2593, "response": "Alpha"}, "8": {"stimulus": 22, "trial": 8, "rt": 2354, "response": "Alpha"}, "78": {"stimulus": 40, "trial": 78, "rt": 3453, "response": "Alpha"}, "51": {"stimulus": 44, "trial": 51, "rt": 1210, "response": "Beta"}, "39": {"stimulus": 37, "trial": 39, "rt": 883, "response": "Beta"}, "65": {"stimulus": 8, "trial": 65, "rt": 1105, "response": "Beta"}, "76": {"stimulus": 12, "trial": 76, "rt": 2159, "response": "Alpha"}, "75": {"stimulus": 0, "trial": 75, "rt": 1705, "response": "Beta"}, "38": {"stimulus": 10, "trial": 38, "rt": 1157, "response": "Beta"}, "73": {"stimulus": 23, "trial": 73, "rt": 1758, "response": "Alpha"}, "72": {"stimulus": 57, "trial": 72, "rt": 3385, "response": "Alpha"}, "71": {"stimulus": 21, "trial": 71, "rt": 1893, "response": "Alpha"}, "70": {"stimulus": 18, "trial": 70, "rt": 897, "response": "Beta"}, "59": {"stimulus": 78, "trial": 59, "rt": 2594, "response": "Beta"}, "79": {"stimulus": 30, "trial": 79, "rt": 1039, "response": "Alpha"}, "58": {"stimulus": 4, "trial": 58, "rt": 1023, "response": "Alpha"}, "11": {"stimulus": 19, "trial": 11, "rt": 2392, "response": "Beta"}, "10": {"stimulus": 80, "trial": 10, "rt": 1112, "response": "Beta"}, "13": {"stimulus": 69, "trial": 13, "rt": 1813, "response": "Beta"}, "12": {"stimulus": 28, "trial": 12, "rt": 924, "response": "Beta"}, "15": {"stimulus": 56, "trial": 15, "rt": 3729, "response": "Alpha"}, "14": {"stimulus": 13, "trial": 14, "rt": 1465, "response": "Alpha"}, "17": {"stimulus": 41, "trial": 17, "rt": 1221, "response": "Alpha"}, "16": {"stimulus": 50, "trial": 16, "rt": 2143, "response": "Alpha"}, "19": {"stimulus": 63, "trial": 19, "rt": 1358, "response": "Beta"}, "18": {"stimulus": 34, "trial": 18, "rt": 2316, "response": "Beta"}, "31": {"stimulus": 6, "trial": 31, "rt": 1653, "response": "Alpha"}, "30": {"stimulus": 11, "trial": 30, "rt": 1576, "response": "Alpha"}, "37": {"stimulus": 2, "trial": 37, "rt": 911, "response": "Beta"}, "36": {"stimulus": 26, "trial": 36, "rt": 1691, "response": "Beta"}, "35": {"stimulus": 64, "trial": 35, "rt": 1906, "response": "Beta"}, "34": {"stimulus": 14, "trial": 34, "rt": 2754, "response": "Beta"}, "33": {"stimulus": 55, "trial": 33, "rt": 3964, "response": "Beta"}, "55": {"stimulus": 60, "trial": 55, "rt": 774, "response": "Beta"}, "74": {"stimulus": 24, "trial": 74, "rt": 1866, "response": "Beta"}, "32": {"stimulus": 67, "trial": 32, "rt": 1118, "response": "Alpha"}, "57": {"stimulus": 49, "trial": 57, "rt": 1436, "response": "Alpha"}, "50": {"stimulus": 36, "trial": 50, "rt": 1303, "response": "Beta"}}}