{"generation": {"1": {"stimulus": 64, "trial": 1, "rt": 11335}, "0": {"stimulus": 73, "trial": 0, "rt": 20812}, "3": {"stimulus": 63, "trial": 3, "rt": 5905}, "2": {"stimulus": 72, "trial": 2, "rt": 10179}}, "info": {"finish": 1482175376426, "participant": 73, "exposed": true, "lab": false, "start": 1482175091182, "counterbalance": 7, "condition": "Middle", "browser": {"platform": "Linux x86_64", "userAgent": "Mozilla/5.0 (X11; Ubuntu; Linux x86_64; rv:50.0) Gecko/20100101 Firefox/50.0"}}, "experiment": {"Paradigm": "TACL", "Stimuli": "Size-Color Squares", "Experiment": "Generating-Categories"}, "observation": {"11": {"stimulus": 32, "trial": 11, "rt": 1194}, "10": {"stimulus": 30, "trial": 10, "rt": 1450}, "1": {"stimulus": 30, "trial": 1, "rt": 1960}, "0": {"stimulus": 48, "trial": 0, "rt": 2742}, "3": {"stimulus": 50, "trial": 3, "rt": 1697}, "2": {"stimulus": 32, "trial": 2, "rt": 1903}, "5": {"stimulus": 50, "trial": 5, "rt": 1807}, "4": {"stimulus": 48, "trial": 4, "rt": 1422}, "7": {"stimulus": 32, "trial": 7, "rt": 1387}, "6": {"stimulus": 30, "trial": 6, "rt": 1283}, "9": {"stimulus": 50, "trial": 9, "rt": 1388}, "8": {"stimulus": 48, "trial": 8, "rt": 1393}}, "generalization": {"56": {"stimulus": 7, "trial": 56, "rt": 1115, "response": "Alpha"}, "77": {"stimulus": 63, "trial": 77, "rt": 1245, "response": "Beta"}, "54": {"stimulus": 9, "trial": 54, "rt": 1371, "response": "Alpha"}, "42": {"stimulus": 37, "trial": 42, "rt": 762, "response": "Alpha"}, "48": {"stimulus": 53, "trial": 48, "rt": 883, "response": "Beta"}, "43": {"stimulus": 3, "trial": 43, "rt": 670, "response": "Alpha"}, "60": {"stimulus": 65, "trial": 60, "rt": 650, "response": "Alpha"}, "61": {"stimulus": 45, "trial": 61, "rt": 690, "response": "Beta"}, "62": {"stimulus": 4, "trial": 62, "rt": 631, "response": "Alpha"}, "63": {"stimulus": 11, "trial": 63, "rt": 495, "response": "Alpha"}, "64": {"stimulus": 73, "trial": 64, "rt": 1142, "response": "Beta"}, "49": {"stimulus": 40, "trial": 49, "rt": 1828, "response": "Alpha"}, "66": {"stimulus": 18, "trial": 66, "rt": 1116, "response": "Alpha"}, "67": {"stimulus": 48, "trial": 67, "rt": 770, "response": "Alpha"}, "68": {"stimulus": 78, "trial": 68, "rt": 955, "response": "Beta"}, "69": {"stimulus": 10, "trial": 69, "rt": 634, "response": "Alpha"}, "80": {"stimulus": 75, "trial": 80, "rt": 819, "response": "Alpha"}, "52": {"stimulus": 33, "trial": 52, "rt": 834, "response": "Alpha"}, "53": {"stimulus": 38, "trial": 53, "rt": 591, "response": "Alpha"}, "24": {"stimulus": 77, "trial": 24, "rt": 1208, "response": "Beta"}, "25": {"stimulus": 22, "trial": 25, "rt": 878, "response": "Alpha"}, "26": {"stimulus": 76, "trial": 26, "rt": 883, "response": "Beta"}, "27": {"stimulus": 8, "trial": 27, "rt": 1508, "response": "Beta"}, "20": {"stimulus": 14, "trial": 20, "rt": 650, "response": "Alpha"}, "21": {"stimulus": 39, "trial": 21, "rt": 1125, "response": "Alpha"}, "22": {"stimulus": 54, "trial": 22, "rt": 975, "response": "Beta"}, "23": {"stimulus": 58, "trial": 23, "rt": 1915, "response": "Alpha"}, "46": {"stimulus": 49, "trial": 46, "rt": 843, "response": "Alpha"}, "47": {"stimulus": 32, "trial": 47, "rt": 746, "response": "Alpha"}, "44": {"stimulus": 46, "trial": 44, "rt": 503, "response": "Alpha"}, "45": {"stimulus": 2, "trial": 45, "rt": 563, "response": "Alpha"}, "28": {"stimulus": 34, "trial": 28, "rt": 962, "response": "Beta"}, "29": {"stimulus": 43, "trial": 29, "rt": 971, "response": "Beta"}, "40": {"stimulus": 6, "trial": 40, "rt": 1538, "response": "Beta"}, "41": {"stimulus": 16, "trial": 41, "rt": 747, "response": "Beta"}, "1": {"stimulus": 64, "trial": 1, "rt": 1914, "response": "Beta"}, "0": {"stimulus": 70, "trial": 0, "rt": 1832, "response": "Beta"}, "3": {"stimulus": 66, "trial": 3, "rt": 1138, "response": "Alpha"}, "2": {"stimulus": 17, "trial": 2, "rt": 1267, "response": "Beta"}, "5": {"stimulus": 68, "trial": 5, "rt": 1603, "response": "Beta"}, "4": {"stimulus": 27, "trial": 4, "rt": 2763, "response": "Beta"}, "7": {"stimulus": 67, "trial": 7, "rt": 930, "response": "Alpha"}, "6": {"stimulus": 42, "trial": 6, "rt": 1187, "response": "Beta"}, "9": {"stimulus": 80, "trial": 9, "rt": 1206, "response": "Beta"}, "8": {"stimulus": 60, "trial": 8, "rt": 1996, "response": "Beta"}, "78": {"stimulus": 26, "trial": 78, "rt": 1520, "response": "Beta"}, "51": {"stimulus": 31, "trial": 51, "rt": 821, "response": "Beta"}, "39": {"stimulus": 25, "trial": 39, "rt": 548, "response": "Beta"}, "65": {"stimulus": 23, "trial": 65, "rt": 1522, "response": "Alpha"}, "76": {"stimulus": 24, "trial": 76, "rt": 587, "response": "Beta"}, "75": {"stimulus": 28, "trial": 75, "rt": 995, "response": "Alpha"}, "38": {"stimulus": 44, "trial": 38, "rt": 530, "response": "Beta"}, "73": {"stimulus": 59, "trial": 73, "rt": 489, "response": "Alpha"}, "72": {"stimulus": 30, "trial": 72, "rt": 658, "response": "Alpha"}, "71": {"stimulus": 1, "trial": 71, "rt": 729, "response": "Alpha"}, "70": {"stimulus": 69, "trial": 70, "rt": 1245, "response": "Beta"}, "59": {"stimulus": 5, "trial": 59, "rt": 401, "response": "Beta"}, "79": {"stimulus": 61, "trial": 79, "rt": 779, "response": "Beta"}, "58": {"stimulus": 15, "trial": 58, "rt": 5659, "response": "Beta"}, "11": {"stimulus": 51, "trial": 11, "rt": 1110, "response": "Beta"}, "10": {"stimulus": 55, "trial": 10, "rt": 1037, "response": "Alpha"}, "13": {"stimulus": 47, "trial": 13, "rt": 993, "response": "Alpha"}, "12": {"stimulus": 79, "trial": 12, "rt": 729, "response": "Beta"}, "15": {"stimulus": 29, "trial": 15, "rt": 2643, "response": "Alpha"}, "14": {"stimulus": 72, "trial": 14, "rt": 1176, "response": "Beta"}, "17": {"stimulus": 50, "trial": 17, "rt": 1412, "response": "Alpha"}, "16": {"stimulus": 0, "trial": 16, "rt": 1903, "response": "Alpha"}, "19": {"stimulus": 41, "trial": 19, "rt": 747, "response": "Alpha"}, "18": {"stimulus": 13, "trial": 18, "rt": 1726, "response": "Alpha"}, "31": {"stimulus": 62, "trial": 31, "rt": 1011, "response": "Beta"}, "30": {"stimulus": 12, "trial": 30, "rt": 1652, "response": "Alpha"}, "37": {"stimulus": 35, "trial": 37, "rt": 2551, "response": "Beta"}, "36": {"stimulus": 71, "trial": 36, "rt": 1283, "response": "Beta"}, "35": {"stimulus": 36, "trial": 35, "rt": 2707, "response": "Beta"}, "34": {"stimulus": 52, "trial": 34, "rt": 1219, "response": "Beta"}, "33": {"stimulus": 74, "trial": 33, "rt": 1842, "response": "Alpha"}, "55": {"stimulus": 57, "trial": 55, "rt": 6266, "response": "Alpha"}, "74": {"stimulus": 56, "trial": 74, "rt": 762, "response": "Alpha"}, "32": {"stimulus": 20, "trial": 32, "rt": 874, "response": "Alpha"}, "57": {"stimulus": 21, "trial": 57, "rt": 810, "response": "Alpha"}, "50": {"stimulus": 19, "trial": 50, "rt": 1528, "response": "Beta"}}}