{"generation": {"1": {"stimulus": 80, "trial": 1, "rt": 11360}, "0": {"stimulus": 8, "trial": 0, "rt": 14352}, "3": {"stimulus": 0, "trial": 3, "rt": 3331}, "2": {"stimulus": 72, "trial": 2, "rt": 3531}}, "info": {"finish": 1482175317104, "participant": 74, "exposed": true, "lab": false, "start": 1482175098742, "counterbalance": 4, "condition": "Middle", "browser": {"platform": "Win32", "userAgent": "Mozilla/5.0 (Windows NT 6.0; WOW64) AppleWebKit/537.36 (KHTML, like Gecko) Chrome/49.0.2623.112 Safari/537.36"}}, "experiment": {"Paradigm": "TACL", "Stimuli": "Size-Color Squares", "Experiment": "Generating-Categories"}, "observation": {"11": {"stimulus": 32, "trial": 11, "rt": 892}, "10": {"stimulus": 30, "trial": 10, "rt": 924}, "1": {"stimulus": 50, "trial": 1, "rt": 1133}, "0": {"stimulus": 32, "trial": 0, "rt": 2617}, "3": {"stimulus": 48, "trial": 3, "rt": 912}, "2": {"stimulus": 30, "trial": 2, "rt": 948}, "5": {"stimulus": 50, "trial": 5, "rt": 27190}, "4": {"stimulus": 32, "trial": 4, "rt": 1137}, "7": {"stimulus": 48, "trial": 7, "rt": 915}, "6": {"stimulus": 30, "trial": 6, "rt": 956}, "9": {"stimulus": 50, "trial": 9, "rt": 964}, "8": {"stimulus": 48, "trial": 8, "rt": 1260}}, "generalization": {"56": {"stimulus": 1, "trial": 56, "rt": 603, "response": "Beta"}, "77": {"stimulus": 14, "trial": 77, "rt": 1612, "response": "Alpha"}, "54": {"stimulus": 15, "trial": 54, "rt": 1548, "response": "Alpha"}, "42": {"stimulus": 3, "trial": 42, "rt": 867, "response": "Alpha"}, "48": {"stimulus": 71, "trial": 48, "rt": 662, "response": "Beta"}, "43": {"stimulus": 2, "trial": 43, "rt": 715, "response": "Beta"}, "60": {"stimulus": 26, "trial": 60, "rt": 788, "response": "Beta"}, "61": {"stimulus": 18, "trial": 61, "rt": 1405, "response": "Beta"}, "62": {"stimulus": 73, "trial": 62, "rt": 1219, "response": "Beta"}, "63": {"stimulus": 24, "trial": 63, "rt": 419, "response": "Beta"}, "64": {"stimulus": 16, "trial": 64, "rt": 603, "response": "Beta"}, "49": {"stimulus": 6, "trial": 49, "rt": 1201, "response": "Alpha"}, "66": {"stimulus": 20, "trial": 66, "rt": 948, "response": "Alpha"}, "67": {"stimulus": 40, "trial": 67, "rt": 812, "response": "Alpha"}, "68": {"stimulus": 29, "trial": 68, "rt": 892, "response": "Beta"}, "69": {"stimulus": 22, "trial": 69, "rt": 675, "response": "Alpha"}, "80": {"stimulus": 77, "trial": 80, "rt": 772, "response": "Alpha"}, "52": {"stimulus": 43, "trial": 52, "rt": 896, "response": "Beta"}, "53": {"stimulus": 36, "trial": 53, "rt": 900, "response": "Beta"}, "24": {"stimulus": 32, "trial": 24, "rt": 1059, "response": "Beta"}, "25": {"stimulus": 65, "trial": 25, "rt": 1364, "response": "Beta"}, "26": {"stimulus": 48, "trial": 26, "rt": 715, "response": "Alpha"}, "27": {"stimulus": 68, "trial": 27, "rt": 915, "response": "Alpha"}, "20": {"stimulus": 37, "trial": 20, "rt": 963, "response": "Beta"}, "21": {"stimulus": 80, "trial": 21, "rt": 1036, "response": "Beta"}, "22": {"stimulus": 47, "trial": 22, "rt": 724, "response": "Beta"}, "23": {"stimulus": 53, "trial": 23, "rt": 804, "response": "Beta"}, "46": {"stimulus": 75, "trial": 46, "rt": 1043, "response": "Alpha"}, "47": {"stimulus": 13, "trial": 47, "rt": 1532, "response": "Alpha"}, "44": {"stimulus": 61, "trial": 44, "rt": 755, "response": "Beta"}, "45": {"stimulus": 8, "trial": 45, "rt": 940, "response": "Beta"}, "28": {"stimulus": 38, "trial": 28, "rt": 708, "response": "Beta"}, "29": {"stimulus": 72, "trial": 29, "rt": 644, "response": "Beta"}, "40": {"stimulus": 62, "trial": 40, "rt": 788, "response": "Beta"}, "41": {"stimulus": 4, "trial": 41, "rt": 9612, "response": "Alpha"}, "1": {"stimulus": 12, "trial": 1, "rt": 707, "response": "Alpha"}, "0": {"stimulus": 39, "trial": 0, "rt": 2400, "response": "Alpha"}, "3": {"stimulus": 27, "trial": 3, "rt": 1107, "response": "Beta"}, "2": {"stimulus": 34, "trial": 2, "rt": 1075, "response": "Beta"}, "5": {"stimulus": 59, "trial": 5, "rt": 771, "response": "Alpha"}, "4": {"stimulus": 42, "trial": 4, "rt": 772, "response": "Alpha"}, "7": {"stimulus": 46, "trial": 7, "rt": 661, "response": "Beta"}, "6": {"stimulus": 41, "trial": 6, "rt": 828, "response": "Alpha"}, "9": {"stimulus": 31, "trial": 9, "rt": 596, "response": "Beta"}, "8": {"stimulus": 57, "trial": 8, "rt": 955, "response": "Alpha"}, "78": {"stimulus": 52, "trial": 78, "rt": 817, "response": "Beta"}, "51": {"stimulus": 11, "trial": 51, "rt": 1500, "response": "Alpha"}, "39": {"stimulus": 25, "trial": 39, "rt": 1283, "response": "Beta"}, "65": {"stimulus": 64, "trial": 65, "rt": 844, "response": "Beta"}, "76": {"stimulus": 44, "trial": 76, "rt": 595, "response": "Beta"}, "75": {"stimulus": 69, "trial": 75, "rt": 907, "response": "Alpha"}, "38": {"stimulus": 63, "trial": 38, "rt": 683, "response": "Beta"}, "73": {"stimulus": 54, "trial": 73, "rt": 884, "response": "Alpha"}, "72": {"stimulus": 51, "trial": 72, "rt": 723, "response": "Beta"}, "71": {"stimulus": 76, "trial": 71, "rt": 811, "response": "Alpha"}, "70": {"stimulus": 55, "trial": 70, "rt": 852, "response": "Beta"}, "59": {"stimulus": 66, "trial": 59, "rt": 1244, "response": "Alpha"}, "79": {"stimulus": 30, "trial": 79, "rt": 924, "response": "Alpha"}, "58": {"stimulus": 19, "trial": 58, "rt": 1196, "response": "Beta"}, "11": {"stimulus": 28, "trial": 11, "rt": 723, "response": "Beta"}, "10": {"stimulus": 60, "trial": 10, "rt": 2515, "response": "Alpha"}, "13": {"stimulus": 58, "trial": 13, "rt": 770, "response": "Alpha"}, "12": {"stimulus": 7, "trial": 12, "rt": 1493, "response": "Beta"}, "15": {"stimulus": 17, "trial": 15, "rt": 1076, "response": "Beta"}, "14": {"stimulus": 49, "trial": 14, "rt": 819, "response": "Alpha"}, "17": {"stimulus": 74, "trial": 17, "rt": 819, "response": "Beta"}, "16": {"stimulus": 35, "trial": 16, "rt": 772, "response": "Beta"}, "19": {"stimulus": 21, "trial": 19, "rt": 867, "response": "Beta"}, "18": {"stimulus": 70, "trial": 18, "rt": 916, "response": "Beta"}, "31": {"stimulus": 10, "trial": 31, "rt": 845, "response": "Beta"}, "30": {"stimulus": 67, "trial": 30, "rt": 1059, "response": "Beta"}, "37": {"stimulus": 33, "trial": 37, "rt": 1106, "response": "Alpha"}, "36": {"stimulus": 5, "trial": 36, "rt": 852, "response": "Beta"}, "35": {"stimulus": 50, "trial": 35, "rt": 788, "response": "Beta"}, "34": {"stimulus": 45, "trial": 34, "rt": 1139, "response": "Beta"}, "33": {"stimulus": 56, "trial": 33, "rt": 979, "response": "Beta"}, "55": {"stimulus": 23, "trial": 55, "rt": 851, "response": "Alpha"}, "74": {"stimulus": 78, "trial": 74, "rt": 1245, "response": "Alpha"}, "32": {"stimulus": 79, "trial": 32, "rt": 859, "response": "Beta"}, "57": {"stimulus": 0, "trial": 57, "rt": 540, "response": "Beta"}, "50": {"stimulus": 9, "trial": 50, "rt": 659, "response": "Beta"}}}