{"generation": {"1": {"stimulus": 8, "trial": 1, "rt": 10875}, "0": {"stimulus": 80, "trial": 0, "rt": 8631}, "3": {"stimulus": 62, "trial": 3, "rt": 5850}, "2": {"stimulus": 17, "trial": 2, "rt": 8663}}, "info": {"finish": 1482175427448, "participant": 76, "exposed": true, "lab": false, "start": 1482175200943, "counterbalance": 5, "condition": "Middle", "browser": {"platform": "Win32", "userAgent": "Mozilla/5.0 (Windows NT 10.0; WOW64) AppleWebKit/537.36 (KHTML, like Gecko) Chrome/55.0.2883.87 Safari/537.36"}}, "experiment": {"Paradigm": "TACL", "Stimuli": "Size-Color Squares", "Experiment": "Generating-Categories"}, "observation": {"11": {"stimulus": 48, "trial": 11, "rt": 1031}, "10": {"stimulus": 32, "trial": 10, "rt": 1010}, "1": {"stimulus": 50, "trial": 1, "rt": 1590}, "0": {"stimulus": 30, "trial": 0, "rt": 2014}, "3": {"stimulus": 48, "trial": 3, "rt": 3635}, "2": {"stimulus": 32, "trial": 2, "rt": 1052}, "5": {"stimulus": 48, "trial": 5, "rt": 1635}, "4": {"stimulus": 50, "trial": 4, "rt": 20603}, "7": {"stimulus": 32, "trial": 7, "rt": 997}, "6": {"stimulus": 30, "trial": 6, "rt": 910}, "9": {"stimulus": 50, "trial": 9, "rt": 1376}, "8": {"stimulus": 30, "trial": 8, "rt": 1387}}, "generalization": {"56": {"stimulus": 38, "trial": 56, "rt": 559, "response": "Alpha"}, "77": {"stimulus": 1, "trial": 77, "rt": 843, "response": "Alpha"}, "54": {"stimulus": 4, "trial": 54, "rt": 803, "response": "Alpha"}, "42": {"stimulus": 25, "trial": 42, "rt": 932, "response": "Beta"}, "48": {"stimulus": 56, "trial": 48, "rt": 558, "response": "Alpha"}, "43": {"stimulus": 62, "trial": 43, "rt": 615, "response": "Beta"}, "60": {"stimulus": 33, "trial": 60, "rt": 1261, "response": "Alpha"}, "61": {"stimulus": 37, "trial": 61, "rt": 798, "response": "Alpha"}, "62": {"stimulus": 46, "trial": 62, "rt": 748, "response": "Alpha"}, "63": {"stimulus": 50, "trial": 63, "rt": 654, "response": "Alpha"}, "64": {"stimulus": 13, "trial": 64, "rt": 540, "response": "Alpha"}, "49": {"stimulus": 26, "trial": 49, "rt": 1270, "response": "Beta"}, "66": {"stimulus": 69, "trial": 66, "rt": 690, "response": "Alpha"}, "67": {"stimulus": 32, "trial": 67, "rt": 2875, "response": "Alpha"}, "68": {"stimulus": 61, "trial": 68, "rt": 955, "response": "Beta"}, "69": {"stimulus": 51, "trial": 69, "rt": 1127, "response": "Beta"}, "80": {"stimulus": 58, "trial": 80, "rt": 783, "response": "Alpha"}, "52": {"stimulus": 66, "trial": 52, "rt": 651, "response": "Alpha"}, "53": {"stimulus": 70, "trial": 53, "rt": 791, "response": "Beta"}, "24": {"stimulus": 15, "trial": 24, "rt": 1023, "response": "Alpha"}, "25": {"stimulus": 17, "trial": 25, "rt": 1065, "response": "Beta"}, "26": {"stimulus": 63, "trial": 26, "rt": 797, "response": "Alpha"}, "27": {"stimulus": 2, "trial": 27, "rt": 882, "response": "Alpha"}, "20": {"stimulus": 64, "trial": 20, "rt": 1193, "response": "Alpha"}, "21": {"stimulus": 23, "trial": 21, "rt": 1159, "response": "Alpha"}, "22": {"stimulus": 75, "trial": 22, "rt": 604, "response": "Alpha"}, "23": {"stimulus": 59, "trial": 23, "rt": 911, "response": "Alpha"}, "46": {"stimulus": 31, "trial": 46, "rt": 556, "response": "Alpha"}, "47": {"stimulus": 34, "trial": 47, "rt": 922, "response": "Beta"}, "44": {"stimulus": 3, "trial": 44, "rt": 1929, "response": "Alpha"}, "45": {"stimulus": 20, "trial": 45, "rt": 514, "response": "Alpha"}, "28": {"stimulus": 6, "trial": 28, "rt": 1327, "response": "Alpha"}, "29": {"stimulus": 72, "trial": 29, "rt": 571, "response": "Alpha"}, "40": {"stimulus": 74, "trial": 40, "rt": 484, "response": "Alpha"}, "41": {"stimulus": 42, "trial": 41, "rt": 1016, "response": "Alpha"}, "1": {"stimulus": 0, "trial": 1, "rt": 1747, "response": "Alpha"}, "0": {"stimulus": 73, "trial": 0, "rt": 3010, "response": "Alpha"}, "3": {"stimulus": 11, "trial": 3, "rt": 980, "response": "Alpha"}, "2": {"stimulus": 80, "trial": 2, "rt": 992, "response": "Beta"}, "5": {"stimulus": 22, "trial": 5, "rt": 1135, "response": "Alpha"}, "4": {"stimulus": 45, "trial": 4, "rt": 959, "response": "Alpha"}, "7": {"stimulus": 43, "trial": 7, "rt": 841, "response": "Beta"}, "6": {"stimulus": 78, "trial": 6, "rt": 1178, "response": "Alpha"}, "9": {"stimulus": 76, "trial": 9, "rt": 1127, "response": "Alpha"}, "8": {"stimulus": 35, "trial": 8, "rt": 1003, "response": "Beta"}, "78": {"stimulus": 10, "trial": 78, "rt": 743, "response": "Alpha"}, "51": {"stimulus": 40, "trial": 51, "rt": 1119, "response": "Alpha"}, "39": {"stimulus": 57, "trial": 39, "rt": 926, "response": "Alpha"}, "65": {"stimulus": 30, "trial": 65, "rt": 543, "response": "Alpha"}, "76": {"stimulus": 24, "trial": 76, "rt": 1404, "response": "Beta"}, "75": {"stimulus": 8, "trial": 75, "rt": 859, "response": "Beta"}, "38": {"stimulus": 77, "trial": 38, "rt": 923, "response": "Alpha"}, "73": {"stimulus": 14, "trial": 73, "rt": 741, "response": "Alpha"}, "72": {"stimulus": 52, "trial": 72, "rt": 1042, "response": "Beta"}, "71": {"stimulus": 54, "trial": 71, "rt": 483, "response": "Alpha"}, "70": {"stimulus": 65, "trial": 70, "rt": 907, "response": "Alpha"}, "59": {"stimulus": 53, "trial": 59, "rt": 1487, "response": "Beta"}, "79": {"stimulus": 48, "trial": 79, "rt": 761, "response": "Alpha"}, "58": {"stimulus": 7, "trial": 58, "rt": 899, "response": "Beta"}, "11": {"stimulus": 9, "trial": 11, "rt": 944, "response": "Alpha"}, "10": {"stimulus": 21, "trial": 10, "rt": 811, "response": "Alpha"}, "13": {"stimulus": 41, "trial": 13, "rt": 719, "response": "Alpha"}, "12": {"stimulus": 39, "trial": 12, "rt": 674, "response": "Alpha"}, "15": {"stimulus": 19, "trial": 15, "rt": 625, "response": "Alpha"}, "14": {"stimulus": 27, "trial": 14, "rt": 593, "response": "Alpha"}, "17": {"stimulus": 18, "trial": 17, "rt": 894, "response": "Alpha"}, "16": {"stimulus": 44, "trial": 16, "rt": 995, "response": "Beta"}, "19": {"stimulus": 12, "trial": 19, "rt": 648, "response": "Alpha"}, "18": {"stimulus": 47, "trial": 18, "rt": 2143, "response": "Alpha"}, "31": {"stimulus": 29, "trial": 31, "rt": 960, "response": "Alpha"}, "30": {"stimulus": 60, "trial": 30, "rt": 839, "response": "Alpha"}, "37": {"stimulus": 16, "trial": 37, "rt": 575, "response": "Beta"}, "36": {"stimulus": 71, "trial": 36, "rt": 567, "response": "Beta"}, "35": {"stimulus": 79, "trial": 35, "rt": 1927, "response": "Beta"}, "34": {"stimulus": 67, "trial": 34, "rt": 1160, "response": "Alpha"}, "33": {"stimulus": 68, "trial": 33, "rt": 931, "response": "Alpha"}, "55": {"stimulus": 5, "trial": 55, "rt": 862, "response": "Alpha"}, "74": {"stimulus": 49, "trial": 74, "rt": 686, "response": "Alpha"}, "32": {"stimulus": 28, "trial": 32, "rt": 1052, "response": "Alpha"}, "57": {"stimulus": 55, "trial": 57, "rt": 983, "response": "Alpha"}, "50": {"stimulus": 36, "trial": 50, "rt": 827, "response": "Alpha"}}}