{"generation": {"1": {"stimulus": 36, "trial": 1, "rt": 8212}, "0": {"stimulus": 0, "trial": 0, "rt": 7653}, "3": {"stimulus": 18, "trial": 3, "rt": 3002}, "2": {"stimulus": 54, "trial": 2, "rt": 3331}}, "info": {"finish": 1482175384644, "participant": 78, "exposed": true, "lab": false, "start": 1482175230905, "counterbalance": 1, "condition": "Middle", "browser": {"platform": "Win32", "userAgent": "Mozilla/5.0 (Windows NT 5.1) AppleWebKit/537.36 (KHTML, like Gecko) Chrome/49.0.2623.112 Safari/537.36"}}, "experiment": {"Paradigm": "TACL", "Stimuli": "Size-Color Squares", "Experiment": "Generating-Categories"}, "observation": {"11": {"stimulus": 48, "trial": 11, "rt": 812}, "10": {"stimulus": 30, "trial": 10, "rt": 650}, "1": {"stimulus": 30, "trial": 1, "rt": 882}, "0": {"stimulus": 50, "trial": 0, "rt": 1874}, "3": {"stimulus": 32, "trial": 3, "rt": 931}, "2": {"stimulus": 48, "trial": 2, "rt": 909}, "5": {"stimulus": 30, "trial": 5, "rt": 824}, "4": {"stimulus": 48, "trial": 4, "rt": 651}, "7": {"stimulus": 50, "trial": 7, "rt": 757}, "6": {"stimulus": 32, "trial": 6, "rt": 696}, "9": {"stimulus": 50, "trial": 9, "rt": 939}, "8": {"stimulus": 32, "trial": 8, "rt": 835}}, "generalization": {"56": {"stimulus": 13, "trial": 56, "rt": 547, "response": "Alpha"}, "77": {"stimulus": 65, "trial": 77, "rt": 692, "response": "Beta"}, "54": {"stimulus": 33, "trial": 54, "rt": 1236, "response": "Alpha"}, "42": {"stimulus": 27, "trial": 42, "rt": 437, "response": "Beta"}, "48": {"stimulus": 42, "trial": 48, "rt": 643, "response": "Alpha"}, "43": {"stimulus": 32, "trial": 43, "rt": 698, "response": "Alpha"}, "60": {"stimulus": 8, "trial": 60, "rt": 401, "response": "Alpha"}, "61": {"stimulus": 6, "trial": 61, "rt": 475, "response": "Alpha"}, "62": {"stimulus": 48, "trial": 62, "rt": 1099, "response": "Alpha"}, "63": {"stimulus": 49, "trial": 63, "rt": 531, "response": "Alpha"}, "64": {"stimulus": 52, "trial": 64, "rt": 427, "response": "Alpha"}, "49": {"stimulus": 5, "trial": 49, "rt": 579, "response": "Alpha"}, "66": {"stimulus": 43, "trial": 66, "rt": 482, "response": "Beta"}, "67": {"stimulus": 41, "trial": 67, "rt": 548, "response": "Alpha"}, "68": {"stimulus": 2, "trial": 68, "rt": 563, "response": "Alpha"}, "69": {"stimulus": 18, "trial": 69, "rt": 900, "response": "Beta"}, "80": {"stimulus": 15, "trial": 80, "rt": 388, "response": "Alpha"}, "52": {"stimulus": 31, "trial": 52, "rt": 515, "response": "Alpha"}, "53": {"stimulus": 63, "trial": 53, "rt": 755, "response": "Beta"}, "24": {"stimulus": 57, "trial": 24, "rt": 948, "response": "Alpha"}, "25": {"stimulus": 51, "trial": 25, "rt": 491, "response": "Alpha"}, "26": {"stimulus": 19, "trial": 26, "rt": 691, "response": "Beta"}, "27": {"stimulus": 12, "trial": 27, "rt": 916, "response": "Alpha"}, "20": {"stimulus": 45, "trial": 20, "rt": 1109, "response": "Beta"}, "21": {"stimulus": 4, "trial": 21, "rt": 618, "response": "Alpha"}, "22": {"stimulus": 72, "trial": 22, "rt": 740, "response": "Beta"}, "23": {"stimulus": 7, "trial": 23, "rt": 586, "response": "Alpha"}, "46": {"stimulus": 34, "trial": 46, "rt": 404, "response": "Alpha"}, "47": {"stimulus": 28, "trial": 47, "rt": 715, "response": "Beta"}, "44": {"stimulus": 68, "trial": 44, "rt": 499, "response": "Alpha"}, "45": {"stimulus": 71, "trial": 45, "rt": 444, "response": "Alpha"}, "28": {"stimulus": 75, "trial": 28, "rt": 1924, "response": "Beta"}, "29": {"stimulus": 74, "trial": 29, "rt": 653, "response": "Beta"}, "40": {"stimulus": 3, "trial": 40, "rt": 738, "response": "Alpha"}, "41": {"stimulus": 46, "trial": 41, "rt": 652, "response": "Beta"}, "1": {"stimulus": 53, "trial": 1, "rt": 435, "response": "Alpha"}, "0": {"stimulus": 58, "trial": 0, "rt": 1586, "response": "Alpha"}, "3": {"stimulus": 55, "trial": 3, "rt": 915, "response": "Beta"}, "2": {"stimulus": 22, "trial": 2, "rt": 2707, "response": "Alpha"}, "5": {"stimulus": 79, "trial": 5, "rt": 620, "response": "Alpha"}, "4": {"stimulus": 1, "trial": 4, "rt": 643, "response": "Beta"}, "7": {"stimulus": 24, "trial": 7, "rt": 491, "response": "Alpha"}, "6": {"stimulus": 25, "trial": 6, "rt": 500, "response": "Alpha"}, "9": {"stimulus": 11, "trial": 9, "rt": 771, "response": "Beta"}, "8": {"stimulus": 44, "trial": 8, "rt": 459, "response": "Alpha"}, "78": {"stimulus": 54, "trial": 78, "rt": 490, "response": "Beta"}, "51": {"stimulus": 78, "trial": 51, "rt": 556, "response": "Alpha"}, "39": {"stimulus": 40, "trial": 39, "rt": 892, "response": "Alpha"}, "65": {"stimulus": 9, "trial": 65, "rt": 660, "response": "Beta"}, "76": {"stimulus": 26, "trial": 76, "rt": 451, "response": "Alpha"}, "75": {"stimulus": 21, "trial": 75, "rt": 916, "response": "Beta"}, "38": {"stimulus": 35, "trial": 38, "rt": 682, "response": "Alpha"}, "73": {"stimulus": 38, "trial": 73, "rt": 1163, "response": "Beta"}, "72": {"stimulus": 17, "trial": 72, "rt": 355, "response": "Alpha"}, "71": {"stimulus": 23, "trial": 71, "rt": 515, "response": "Alpha"}, "70": {"stimulus": 29, "trial": 70, "rt": 452, "response": "Beta"}, "59": {"stimulus": 69, "trial": 59, "rt": 645, "response": "Alpha"}, "79": {"stimulus": 77, "trial": 79, "rt": 812, "response": "Alpha"}, "58": {"stimulus": 73, "trial": 58, "rt": 444, "response": "Beta"}, "11": {"stimulus": 50, "trial": 11, "rt": 764, "response": "Alpha"}, "10": {"stimulus": 0, "trial": 10, "rt": 780, "response": "Beta"}, "13": {"stimulus": 67, "trial": 13, "rt": 1045, "response": "Alpha"}, "12": {"stimulus": 10, "trial": 12, "rt": 822, "response": "Beta"}, "15": {"stimulus": 60, "trial": 15, "rt": 610, "response": "Alpha"}, "14": {"stimulus": 70, "trial": 14, "rt": 435, "response": "Alpha"}, "17": {"stimulus": 59, "trial": 17, "rt": 515, "response": "Alpha"}, "16": {"stimulus": 14, "trial": 16, "rt": 628, "response": "Alpha"}, "19": {"stimulus": 80, "trial": 19, "rt": 556, "response": "Alpha"}, "18": {"stimulus": 64, "trial": 18, "rt": 779, "response": "Beta"}, "31": {"stimulus": 39, "trial": 31, "rt": 411, "response": "Beta"}, "30": {"stimulus": 20, "trial": 30, "rt": 492, "response": "Beta"}, "37": {"stimulus": 47, "trial": 37, "rt": 556, "response": "Beta"}, "36": {"stimulus": 37, "trial": 36, "rt": 611, "response": "Beta"}, "35": {"stimulus": 76, "trial": 35, "rt": 1156, "response": "Alpha"}, "34": {"stimulus": 61, "trial": 34, "rt": 507, "response": "Alpha"}, "33": {"stimulus": 62, "trial": 33, "rt": 635, "response": "Alpha"}, "55": {"stimulus": 66, "trial": 55, "rt": 1066, "response": "Alpha"}, "74": {"stimulus": 30, "trial": 74, "rt": 427, "response": "Beta"}, "32": {"stimulus": 16, "trial": 32, "rt": 587, "response": "Alpha"}, "57": {"stimulus": 36, "trial": 57, "rt": 652, "response": "Beta"}, "50": {"stimulus": 56, "trial": 50, "rt": 700, "response": "Beta"}}}