{"generation": {"1": {"stimulus": 74, "trial": 1, "rt": 5429}, "0": {"stimulus": 78, "trial": 0, "rt": 9172}, "3": {"stimulus": 16, "trial": 3, "rt": 8168}, "2": {"stimulus": 3, "trial": 2, "rt": 6526}}, "info": {"finish": 1482175467143, "participant": 79, "exposed": true, "lab": false, "start": 1482175243042, "counterbalance": 2, "condition": "Middle", "browser": {"platform": "Win32", "userAgent": "Mozilla/5.0 (Windows NT 10.0; Win64; x64) AppleWebKit/537.36 (KHTML, like Gecko) Chrome/55.0.2883.87 Safari/537.36"}}, "experiment": {"Paradigm": "TACL", "Stimuli": "Size-Color Squares", "Experiment": "Generating-Categories"}, "observation": {"11": {"stimulus": 30, "trial": 11, "rt": 2072}, "10": {"stimulus": 48, "trial": 10, "rt": 2277}, "1": {"stimulus": 32, "trial": 1, "rt": 1689}, "0": {"stimulus": 50, "trial": 0, "rt": 2548}, "3": {"stimulus": 30, "trial": 3, "rt": 2112}, "2": {"stimulus": 48, "trial": 2, "rt": 1172}, "5": {"stimulus": 32, "trial": 5, "rt": 2430}, "4": {"stimulus": 50, "trial": 4, "rt": 2274}, "7": {"stimulus": 30, "trial": 7, "rt": 2013}, "6": {"stimulus": 48, "trial": 6, "rt": 2436}, "9": {"stimulus": 32, "trial": 9, "rt": 2339}, "8": {"stimulus": 50, "trial": 8, "rt": 2087}}, "generalization": {"56": {"stimulus": 53, "trial": 56, "rt": 744, "response": "Alpha"}, "77": {"stimulus": 47, "trial": 77, "rt": 935, "response": "Alpha"}, "54": {"stimulus": 37, "trial": 54, "rt": 710, "response": "Alpha"}, "42": {"stimulus": 66, "trial": 42, "rt": 631, "response": "Beta"}, "48": {"stimulus": 12, "trial": 48, "rt": 898, "response": "Beta"}, "43": {"stimulus": 56, "trial": 43, "rt": 812, "response": "Beta"}, "60": {"stimulus": 2, "trial": 60, "rt": 801, "response": "Beta"}, "61": {"stimulus": 26, "trial": 61, "rt": 1031, "response": "Beta"}, "62": {"stimulus": 41, "trial": 62, "rt": 672, "response": "Alpha"}, "63": {"stimulus": 78, "trial": 63, "rt": 976, "response": "Beta"}, "64": {"stimulus": 11, "trial": 64, "rt": 846, "response": "Beta"}, "49": {"stimulus": 75, "trial": 49, "rt": 963, "response": "Beta"}, "66": {"stimulus": 64, "trial": 66, "rt": 1359, "response": "Alpha"}, "67": {"stimulus": 8, "trial": 67, "rt": 1014, "response": "Beta"}, "68": {"stimulus": 57, "trial": 68, "rt": 1310, "response": "Alpha"}, "69": {"stimulus": 40, "trial": 69, "rt": 810, "response": "Alpha"}, "80": {"stimulus": 18, "trial": 80, "rt": 903, "response": "Alpha"}, "52": {"stimulus": 46, "trial": 52, "rt": 824, "response": "Alpha"}, "53": {"stimulus": 45, "trial": 53, "rt": 685, "response": "Alpha"}, "24": {"stimulus": 50, "trial": 24, "rt": 658, "response": "Alpha"}, "25": {"stimulus": 49, "trial": 25, "rt": 839, "response": "Alpha"}, "26": {"stimulus": 55, "trial": 26, "rt": 1824, "response": "Alpha"}, "27": {"stimulus": 0, "trial": 27, "rt": 854, "response": "Beta"}, "20": {"stimulus": 68, "trial": 20, "rt": 1199, "response": "Beta"}, "21": {"stimulus": 44, "trial": 21, "rt": 835, "response": "Alpha"}, "22": {"stimulus": 36, "trial": 22, "rt": 747, "response": "Alpha"}, "23": {"stimulus": 38, "trial": 23, "rt": 697, "response": "Alpha"}, "46": {"stimulus": 65, "trial": 46, "rt": 1045, "response": "Beta"}, "47": {"stimulus": 51, "trial": 47, "rt": 751, "response": "Alpha"}, "44": {"stimulus": 74, "trial": 44, "rt": 790, "response": "Beta"}, "45": {"stimulus": 1, "trial": 45, "rt": 911, "response": "Beta"}, "28": {"stimulus": 21, "trial": 28, "rt": 698, "response": "Beta"}, "29": {"stimulus": 54, "trial": 29, "rt": 809, "response": "Alpha"}, "40": {"stimulus": 52, "trial": 40, "rt": 856, "response": "Alpha"}, "41": {"stimulus": 5, "trial": 41, "rt": 1013, "response": "Beta"}, "1": {"stimulus": 60, "trial": 1, "rt": 1429, "response": "Alpha"}, "0": {"stimulus": 43, "trial": 0, "rt": 1624, "response": "Alpha"}, "3": {"stimulus": 16, "trial": 3, "rt": 793, "response": "Beta"}, "2": {"stimulus": 24, "trial": 2, "rt": 1712, "response": "Beta"}, "5": {"stimulus": 14, "trial": 5, "rt": 884, "response": "Beta"}, "4": {"stimulus": 29, "trial": 4, "rt": 826, "response": "Alpha"}, "7": {"stimulus": 23, "trial": 7, "rt": 986, "response": "Alpha"}, "6": {"stimulus": 67, "trial": 6, "rt": 4122, "response": "Beta"}, "9": {"stimulus": 72, "trial": 9, "rt": 1117, "response": "Beta"}, "8": {"stimulus": 28, "trial": 8, "rt": 649, "response": "Alpha"}, "78": {"stimulus": 30, "trial": 78, "rt": 999, "response": "Alpha"}, "51": {"stimulus": 79, "trial": 51, "rt": 813, "response": "Beta"}, "39": {"stimulus": 58, "trial": 39, "rt": 1397, "response": "Alpha"}, "65": {"stimulus": 6, "trial": 65, "rt": 776, "response": "Beta"}, "76": {"stimulus": 70, "trial": 76, "rt": 590, "response": "Beta"}, "75": {"stimulus": 77, "trial": 75, "rt": 686, "response": "Beta"}, "38": {"stimulus": 61, "trial": 38, "rt": 900, "response": "Alpha"}, "73": {"stimulus": 63, "trial": 73, "rt": 872, "response": "Alpha"}, "72": {"stimulus": 20, "trial": 72, "rt": 1012, "response": "Beta"}, "71": {"stimulus": 27, "trial": 71, "rt": 1108, "response": "Beta"}, "70": {"stimulus": 25, "trial": 70, "rt": 1075, "response": "Beta"}, "59": {"stimulus": 33, "trial": 59, "rt": 713, "response": "Alpha"}, "79": {"stimulus": 73, "trial": 79, "rt": 1011, "response": "Beta"}, "58": {"stimulus": 80, "trial": 58, "rt": 1007, "response": "Beta"}, "11": {"stimulus": 15, "trial": 11, "rt": 757, "response": "Beta"}, "10": {"stimulus": 71, "trial": 10, "rt": 901, "response": "Beta"}, "13": {"stimulus": 59, "trial": 13, "rt": 831, "response": "Alpha"}, "12": {"stimulus": 31, "trial": 12, "rt": 1420, "response": "Alpha"}, "15": {"stimulus": 9, "trial": 15, "rt": 582, "response": "Beta"}, "14": {"stimulus": 10, "trial": 14, "rt": 912, "response": "Beta"}, "17": {"stimulus": 35, "trial": 17, "rt": 837, "response": "Alpha"}, "16": {"stimulus": 39, "trial": 16, "rt": 947, "response": "Alpha"}, "19": {"stimulus": 42, "trial": 19, "rt": 1170, "response": "Alpha"}, "18": {"stimulus": 22, "trial": 18, "rt": 1896, "response": "Alpha"}, "31": {"stimulus": 32, "trial": 31, "rt": 776, "response": "Alpha"}, "30": {"stimulus": 34, "trial": 30, "rt": 1136, "response": "Alpha"}, "37": {"stimulus": 19, "trial": 37, "rt": 1169, "response": "Alpha"}, "36": {"stimulus": 62, "trial": 36, "rt": 956, "response": "Alpha"}, "35": {"stimulus": 13, "trial": 35, "rt": 932, "response": "Beta"}, "34": {"stimulus": 3, "trial": 34, "rt": 986, "response": "Beta"}, "33": {"stimulus": 7, "trial": 33, "rt": 997, "response": "Beta"}, "55": {"stimulus": 69, "trial": 55, "rt": 1339, "response": "Beta"}, "74": {"stimulus": 4, "trial": 74, "rt": 936, "response": "Beta"}, "32": {"stimulus": 76, "trial": 32, "rt": 1083, "response": "Beta"}, "57": {"stimulus": 48, "trial": 57, "rt": 669, "response": "Alpha"}, "50": {"stimulus": 17, "trial": 50, "rt": 875, "response": "Beta"}}}