{"generation": {"1": {"stimulus": 74, "trial": 1, "rt": 11258}, "0": {"stimulus": 55, "trial": 0, "rt": 19835}, "3": {"stimulus": 36, "trial": 3, "rt": 4424}, "2": {"stimulus": 48, "trial": 2, "rt": 21340}}, "info": {"finish": 1482174820733, "participant": 8, "exposed": true, "lab": false, "start": 1482174409743, "counterbalance": 6, "condition": "Bottom", "browser": {"platform": "Win32", "userAgent": "Mozilla/5.0 (Windows NT 6.1; WOW64; rv:50.0) Gecko/20100101 Firefox/50.0"}}, "experiment": {"Paradigm": "TACL", "Stimuli": "Size-Color Squares", "Experiment": "Generating-Categories"}, "observation": {"11": {"stimulus": 14, "trial": 11, "rt": 645}, "10": {"stimulus": 32, "trial": 10, "rt": 1060}, "1": {"stimulus": 14, "trial": 1, "rt": 1637}, "0": {"stimulus": 12, "trial": 0, "rt": 16766}, "3": {"stimulus": 30, "trial": 3, "rt": 2779}, "2": {"stimulus": 32, "trial": 2, "rt": 1367}, "5": {"stimulus": 30, "trial": 5, "rt": 1008}, "4": {"stimulus": 12, "trial": 4, "rt": 1264}, "7": {"stimulus": 32, "trial": 7, "rt": 1095}, "6": {"stimulus": 14, "trial": 6, "rt": 982}, "9": {"stimulus": 30, "trial": 9, "rt": 804}, "8": {"stimulus": 12, "trial": 8, "rt": 1166}}, "generalization": {"56": {"stimulus": 61, "trial": 56, "rt": 555, "response": "Beta"}, "77": {"stimulus": 26, "trial": 77, "rt": 1147, "response": "Alpha"}, "54": {"stimulus": 77, "trial": 54, "rt": 871, "response": "Beta"}, "42": {"stimulus": 24, "trial": 42, "rt": 2787, "response": "Alpha"}, "48": {"stimulus": 37, "trial": 48, "rt": 1428, "response": "Alpha"}, "43": {"stimulus": 41, "trial": 43, "rt": 1230, "response": "Beta"}, "60": {"stimulus": 47, "trial": 60, "rt": 1047, "response": "Beta"}, "61": {"stimulus": 80, "trial": 61, "rt": 713, "response": "Beta"}, "62": {"stimulus": 34, "trial": 62, "rt": 752, "response": "Beta"}, "63": {"stimulus": 33, "trial": 63, "rt": 910, "response": "Beta"}, "64": {"stimulus": 1, "trial": 64, "rt": 994, "response": "Alpha"}, "49": {"stimulus": 71, "trial": 49, "rt": 1787, "response": "Beta"}, "66": {"stimulus": 75, "trial": 66, "rt": 1062, "response": "Beta"}, "67": {"stimulus": 44, "trial": 67, "rt": 3667, "response": "Beta"}, "68": {"stimulus": 20, "trial": 68, "rt": 1782, "response": "Beta"}, "69": {"stimulus": 74, "trial": 69, "rt": 621, "response": "Beta"}, "80": {"stimulus": 3, "trial": 80, "rt": 1012, "response": "Alpha"}, "52": {"stimulus": 2, "trial": 52, "rt": 763, "response": "Alpha"}, "53": {"stimulus": 30, "trial": 53, "rt": 672, "response": "Alpha"}, "24": {"stimulus": 59, "trial": 24, "rt": 817, "response": "Beta"}, "25": {"stimulus": 73, "trial": 25, "rt": 536, "response": "Beta"}, "26": {"stimulus": 50, "trial": 26, "rt": 773, "response": "Beta"}, "27": {"stimulus": 68, "trial": 27, "rt": 751, "response": "Beta"}, "20": {"stimulus": 43, "trial": 20, "rt": 989, "response": "Alpha"}, "21": {"stimulus": 8, "trial": 21, "rt": 1846, "response": "Alpha"}, "22": {"stimulus": 65, "trial": 22, "rt": 879, "response": "Beta"}, "23": {"stimulus": 55, "trial": 23, "rt": 540, "response": "Beta"}, "46": {"stimulus": 63, "trial": 46, "rt": 899, "response": "Beta"}, "47": {"stimulus": 25, "trial": 47, "rt": 1127, "response": "Alpha"}, "44": {"stimulus": 66, "trial": 44, "rt": 746, "response": "Beta"}, "45": {"stimulus": 21, "trial": 45, "rt": 890, "response": "Alpha"}, "28": {"stimulus": 16, "trial": 28, "rt": 843, "response": "Alpha"}, "29": {"stimulus": 45, "trial": 29, "rt": 877, "response": "Beta"}, "40": {"stimulus": 18, "trial": 40, "rt": 1619, "response": "Alpha"}, "41": {"stimulus": 13, "trial": 41, "rt": 1615, "response": "Alpha"}, "1": {"stimulus": 51, "trial": 1, "rt": 1335, "response": "Beta"}, "0": {"stimulus": 22, "trial": 0, "rt": 2150, "response": "Alpha"}, "3": {"stimulus": 17, "trial": 3, "rt": 988, "response": "Alpha"}, "2": {"stimulus": 31, "trial": 2, "rt": 891, "response": "Alpha"}, "5": {"stimulus": 53, "trial": 5, "rt": 3858, "response": "Beta"}, "4": {"stimulus": 23, "trial": 4, "rt": 700, "response": "Alpha"}, "7": {"stimulus": 57, "trial": 7, "rt": 1714, "response": "Beta"}, "6": {"stimulus": 9, "trial": 6, "rt": 2071, "response": "Alpha"}, "9": {"stimulus": 52, "trial": 9, "rt": 1003, "response": "Alpha"}, "8": {"stimulus": 39, "trial": 8, "rt": 2319, "response": "Beta"}, "78": {"stimulus": 15, "trial": 78, "rt": 7104, "response": "Alpha"}, "51": {"stimulus": 42, "trial": 51, "rt": 762, "response": "Alpha"}, "39": {"stimulus": 14, "trial": 39, "rt": 993, "response": "Alpha"}, "65": {"stimulus": 40, "trial": 65, "rt": 1306, "response": "Beta"}, "76": {"stimulus": 69, "trial": 76, "rt": 811, "response": "Beta"}, "75": {"stimulus": 56, "trial": 75, "rt": 821, "response": "Beta"}, "38": {"stimulus": 70, "trial": 38, "rt": 1100, "response": "Beta"}, "73": {"stimulus": 5, "trial": 73, "rt": 940, "response": "Alpha"}, "72": {"stimulus": 4, "trial": 72, "rt": 952, "response": "Alpha"}, "71": {"stimulus": 19, "trial": 71, "rt": 1350, "response": "Alpha"}, "70": {"stimulus": 46, "trial": 70, "rt": 626, "response": "Beta"}, "59": {"stimulus": 29, "trial": 59, "rt": 1853, "response": "Alpha"}, "79": {"stimulus": 67, "trial": 79, "rt": 1201, "response": "Beta"}, "58": {"stimulus": 6, "trial": 58, "rt": 3714, "response": "Alpha"}, "11": {"stimulus": 60, "trial": 11, "rt": 2503, "response": "Alpha"}, "10": {"stimulus": 72, "trial": 10, "rt": 1114, "response": "Beta"}, "13": {"stimulus": 62, "trial": 13, "rt": 542, "response": "Beta"}, "12": {"stimulus": 48, "trial": 12, "rt": 1194, "response": "Beta"}, "15": {"stimulus": 58, "trial": 15, "rt": 981, "response": "Beta"}, "14": {"stimulus": 10, "trial": 14, "rt": 2596, "response": "Alpha"}, "17": {"stimulus": 27, "trial": 17, "rt": 1230, "response": "Alpha"}, "16": {"stimulus": 12, "trial": 16, "rt": 1103, "response": "Alpha"}, "19": {"stimulus": 7, "trial": 19, "rt": 900, "response": "Alpha"}, "18": {"stimulus": 49, "trial": 18, "rt": 952, "response": "Beta"}, "31": {"stimulus": 36, "trial": 31, "rt": 913, "response": "Beta"}, "30": {"stimulus": 79, "trial": 30, "rt": 525, "response": "Beta"}, "37": {"stimulus": 78, "trial": 37, "rt": 810, "response": "Beta"}, "36": {"stimulus": 76, "trial": 36, "rt": 1187, "response": "Beta"}, "35": {"stimulus": 32, "trial": 35, "rt": 1275, "response": "Alpha"}, "34": {"stimulus": 35, "trial": 34, "rt": 5083, "response": "Alpha"}, "33": {"stimulus": 0, "trial": 33, "rt": 955, "response": "Alpha"}, "55": {"stimulus": 54, "trial": 55, "rt": 971, "response": "Beta"}, "74": {"stimulus": 64, "trial": 74, "rt": 919, "response": "Beta"}, "32": {"stimulus": 38, "trial": 32, "rt": 592, "response": "Beta"}, "57": {"stimulus": 28, "trial": 57, "rt": 1454, "response": "Alpha"}, "50": {"stimulus": 11, "trial": 50, "rt": 1415, "response": "Alpha"}}}