{"generation": {"1": {"stimulus": 7, "trial": 1, "rt": 16771}, "0": {"stimulus": 8, "trial": 0, "rt": 11671}, "3": {"stimulus": 5, "trial": 3, "rt": 9335}, "2": {"stimulus": 6, "trial": 2, "rt": 6301}}, "info": {"participant": 80, "exposed": true, "lab": false, "start": 1482175268841, "counterbalance": 2, "condition": "Middle", "browser": {"platform": "Win32", "userAgent": "Mozilla/5.0 (Windows NT 6.3; WOW64) AppleWebKit/537.36 (KHTML, like Gecko) Chrome/55.0.2883.87 Safari/537.36"}}, "experiment": {"Paradigm": "TACL", "Stimuli": "Size-Color Squares", "Experiment": "Generating-Categories"}, "observation": {"11": {"stimulus": 48, "trial": 11, "rt": 961}, "10": {"stimulus": 30, "trial": 10, "rt": 960}, "1": {"stimulus": 50, "trial": 1, "rt": 1388}, "0": {"stimulus": 48, "trial": 0, "rt": 4372}, "3": {"stimulus": 30, "trial": 3, "rt": 1006}, "2": {"stimulus": 32, "trial": 2, "rt": 1070}, "5": {"stimulus": 50, "trial": 5, "rt": 1034}, "4": {"stimulus": 30, "trial": 4, "rt": 786}, "7": {"stimulus": 32, "trial": 7, "rt": 1114}, "6": {"stimulus": 48, "trial": 6, "rt": 1167}, "9": {"stimulus": 32, "trial": 9, "rt": 943}, "8": {"stimulus": 50, "trial": 8, "rt": 994}}, "generalization": {"56": {"stimulus": 79, "trial": 56, "rt": 1539, "response": "Alpha"}, "77": {"stimulus": 27, "trial": 77, "rt": 998, "response": "Alpha"}, "54": {"stimulus": 7, "trial": 54, "rt": 1074, "response": "Beta"}, "42": {"stimulus": 48, "trial": 42, "rt": 781, "response": "Alpha"}, "48": {"stimulus": 8, "trial": 48, "rt": 1937, "response": "Beta"}, "43": {"stimulus": 55, "trial": 43, "rt": 1150, "response": "Alpha"}, "60": {"stimulus": 70, "trial": 60, "rt": 918, "response": "Alpha"}, "61": {"stimulus": 69, "trial": 61, "rt": 727, "response": "Alpha"}, "62": {"stimulus": 75, "trial": 62, "rt": 819, "response": "Alpha"}, "63": {"stimulus": 66, "trial": 63, "rt": 708, "response": "Alpha"}, "64": {"stimulus": 19, "trial": 64, "rt": 1313, "response": "Beta"}, "49": {"stimulus": 41, "trial": 49, "rt": 2132, "response": "Alpha"}, "66": {"stimulus": 18, "trial": 66, "rt": 819, "response": "Alpha"}, "67": {"stimulus": 53, "trial": 67, "rt": 824, "response": "Alpha"}, "68": {"stimulus": 73, "trial": 68, "rt": 612, "response": "Alpha"}, "69": {"stimulus": 71, "trial": 69, "rt": 492, "response": "Alpha"}, "80": {"stimulus": 35, "trial": 80, "rt": 748, "response": "Alpha"}, "52": {"stimulus": 30, "trial": 52, "rt": 1246, "response": "Alpha"}, "53": {"stimulus": 58, "trial": 53, "rt": 1213, "response": "Alpha"}, "24": {"stimulus": 20, "trial": 24, "rt": 1200, "response": "Alpha"}, "25": {"stimulus": 57, "trial": 25, "rt": 1115, "response": "Alpha"}, "26": {"stimulus": 59, "trial": 26, "rt": 629, "response": "Alpha"}, "27": {"stimulus": 52, "trial": 27, "rt": 477, "response": "Alpha"}, "20": {"stimulus": 46, "trial": 20, "rt": 787, "response": "Alpha"}, "21": {"stimulus": 25, "trial": 21, "rt": 950, "response": "Beta"}, "22": {"stimulus": 38, "trial": 22, "rt": 797, "response": "Alpha"}, "23": {"stimulus": 2, "trial": 23, "rt": 1103, "response": "Beta"}, "46": {"stimulus": 1, "trial": 46, "rt": 1136, "response": "Beta"}, "47": {"stimulus": 78, "trial": 47, "rt": 1085, "response": "Alpha"}, "44": {"stimulus": 42, "trial": 44, "rt": 690, "response": "Alpha"}, "45": {"stimulus": 34, "trial": 45, "rt": 505, "response": "Alpha"}, "28": {"stimulus": 11, "trial": 28, "rt": 1006, "response": "Beta"}, "29": {"stimulus": 36, "trial": 29, "rt": 643, "response": "Alpha"}, "40": {"stimulus": 15, "trial": 40, "rt": 1032, "response": "Beta"}, "41": {"stimulus": 6, "trial": 41, "rt": 1286, "response": "Beta"}, "1": {"stimulus": 21, "trial": 1, "rt": 1147, "response": "Alpha"}, "0": {"stimulus": 67, "trial": 0, "rt": 1514, "response": "Alpha"}, "3": {"stimulus": 16, "trial": 3, "rt": 939, "response": "Beta"}, "2": {"stimulus": 31, "trial": 2, "rt": 878, "response": "Alpha"}, "5": {"stimulus": 65, "trial": 5, "rt": 1202, "response": "Alpha"}, "4": {"stimulus": 23, "trial": 4, "rt": 1887, "response": "Beta"}, "7": {"stimulus": 56, "trial": 7, "rt": 517, "response": "Alpha"}, "6": {"stimulus": 51, "trial": 6, "rt": 586, "response": "Alpha"}, "9": {"stimulus": 28, "trial": 9, "rt": 1738, "response": "Alpha"}, "8": {"stimulus": 4, "trial": 8, "rt": 968, "response": "Beta"}, "78": {"stimulus": 45, "trial": 78, "rt": 922, "response": "Alpha"}, "51": {"stimulus": 0, "trial": 51, "rt": 757, "response": "Beta"}, "39": {"stimulus": 47, "trial": 39, "rt": 1459, "response": "Alpha"}, "65": {"stimulus": 14, "trial": 65, "rt": 1067, "response": "Beta"}, "76": {"stimulus": 5, "trial": 76, "rt": 865, "response": "Beta"}, "75": {"stimulus": 43, "trial": 75, "rt": 1103, "response": "Alpha"}, "38": {"stimulus": 13, "trial": 38, "rt": 2521, "response": "Beta"}, "73": {"stimulus": 76, "trial": 73, "rt": 662, "response": "Alpha"}, "72": {"stimulus": 77, "trial": 72, "rt": 772, "response": "Alpha"}, "71": {"stimulus": 37, "trial": 71, "rt": 904, "response": "Alpha"}, "70": {"stimulus": 33, "trial": 70, "rt": 1646, "response": "Alpha"}, "59": {"stimulus": 54, "trial": 59, "rt": 1075, "response": "Alpha"}, "79": {"stimulus": 62, "trial": 79, "rt": 807, "response": "Alpha"}, "58": {"stimulus": 29, "trial": 58, "rt": 1631, "response": "Alpha"}, "11": {"stimulus": 3, "trial": 11, "rt": 1333, "response": "Beta"}, "10": {"stimulus": 9, "trial": 10, "rt": 1477, "response": "Beta"}, "13": {"stimulus": 49, "trial": 13, "rt": 765, "response": "Alpha"}, "12": {"stimulus": 72, "trial": 12, "rt": 1316, "response": "Alpha"}, "15": {"stimulus": 50, "trial": 15, "rt": 1228, "response": "Alpha"}, "14": {"stimulus": 61, "trial": 14, "rt": 616, "response": "Alpha"}, "17": {"stimulus": 12, "trial": 17, "rt": 1269, "response": "Beta"}, "16": {"stimulus": 44, "trial": 16, "rt": 992, "response": "Alpha"}, "19": {"stimulus": 39, "trial": 19, "rt": 735, "response": "Alpha"}, "18": {"stimulus": 68, "trial": 18, "rt": 839, "response": "Alpha"}, "31": {"stimulus": 24, "trial": 31, "rt": 865, "response": "Beta"}, "30": {"stimulus": 80, "trial": 30, "rt": 788, "response": "Alpha"}, "37": {"stimulus": 74, "trial": 37, "rt": 590, "response": "Alpha"}, "36": {"stimulus": 26, "trial": 36, "rt": 1252, "response": "Beta"}, "35": {"stimulus": 64, "trial": 35, "rt": 1095, "response": "Alpha"}, "34": {"stimulus": 32, "trial": 34, "rt": 1046, "response": "Beta"}, "33": {"stimulus": 22, "trial": 33, "rt": 1026, "response": "Alpha"}, "55": {"stimulus": 40, "trial": 55, "rt": 1170, "response": "Alpha"}, "74": {"stimulus": 60, "trial": 74, "rt": 463, "response": "Alpha"}, "32": {"stimulus": 63, "trial": 32, "rt": 536, "response": "Alpha"}, "57": {"stimulus": 17, "trial": 57, "rt": 1483, "response": "Beta"}, "50": {"stimulus": 10, "trial": 50, "rt": 1754, "response": "Beta"}}}54, "response": "Beta"}}}