{"generation": {"1": {"stimulus": 78, "trial": 1, "rt": 11330}, "0": {"stimulus": 75, "trial": 0, "rt": 15017}, "3": {"stimulus": 77, "trial": 3, "rt": 9069}, "2": {"stimulus": 80, "trial": 2, "rt": 14297}}, "info": {"finish": 1482176656410, "participant": 82, "exposed": true, "lab": false, "start": 1482175985922, "counterbalance": 3, "condition": "Middle", "browser": {"platform": "Win32", "userAgent": "Mozilla/5.0 (Windows NT 6.1; WOW64) AppleWebKit/537.36 (KHTML, like Gecko) Chrome/55.0.2883.87 Safari/537.36"}}, "experiment": {"Paradigm": "TACL", "Stimuli": "Size-Color Squares", "Experiment": "Generating-Categories"}, "observation": {"11": {"stimulus": 48, "trial": 11, "rt": 945}, "10": {"stimulus": 50, "trial": 10, "rt": 1510}, "1": {"stimulus": 48, "trial": 1, "rt": 1353}, "0": {"stimulus": 30, "trial": 0, "rt": 79216}, "3": {"stimulus": 32, "trial": 3, "rt": 1479}, "2": {"stimulus": 50, "trial": 2, "rt": 1376}, "5": {"stimulus": 48, "trial": 5, "rt": 1819}, "4": {"stimulus": 32, "trial": 4, "rt": 1323}, "7": {"stimulus": 30, "trial": 7, "rt": 1059}, "6": {"stimulus": 50, "trial": 6, "rt": 1032}, "9": {"stimulus": 30, "trial": 9, "rt": 1001}, "8": {"stimulus": 32, "trial": 8, "rt": 973}}, "generalization": {"56": {"stimulus": 55, "trial": 56, "rt": 659, "response": "Alpha"}, "77": {"stimulus": 23, "trial": 77, "rt": 740, "response": "Alpha"}, "54": {"stimulus": 16, "trial": 54, "rt": 3140, "response": "Alpha"}, "42": {"stimulus": 57, "trial": 42, "rt": 1251, "response": "Alpha"}, "48": {"stimulus": 49, "trial": 48, "rt": 971, "response": "Alpha"}, "43": {"stimulus": 62, "trial": 43, "rt": 1219, "response": "Alpha"}, "60": {"stimulus": 2, "trial": 60, "rt": 624, "response": "Alpha"}, "61": {"stimulus": 44, "trial": 61, "rt": 639, "response": "Alpha"}, "62": {"stimulus": 24, "trial": 62, "rt": 795, "response": "Alpha"}, "63": {"stimulus": 58, "trial": 63, "rt": 1396, "response": "Alpha"}, "64": {"stimulus": 42, "trial": 64, "rt": 2084, "response": "Alpha"}, "49": {"stimulus": 22, "trial": 49, "rt": 900, "response": "Alpha"}, "66": {"stimulus": 45, "trial": 66, "rt": 804, "response": "Alpha"}, "67": {"stimulus": 14, "trial": 67, "rt": 948, "response": "Alpha"}, "68": {"stimulus": 7, "trial": 68, "rt": 556, "response": "Alpha"}, "69": {"stimulus": 31, "trial": 69, "rt": 636, "response": "Alpha"}, "80": {"stimulus": 61, "trial": 80, "rt": 1668, "response": "Alpha"}, "52": {"stimulus": 47, "trial": 52, "rt": 691, "response": "Alpha"}, "53": {"stimulus": 72, "trial": 53, "rt": 2915, "response": "Beta"}, "24": {"stimulus": 56, "trial": 24, "rt": 1108, "response": "Alpha"}, "25": {"stimulus": 26, "trial": 25, "rt": 1307, "response": "Alpha"}, "26": {"stimulus": 53, "trial": 26, "rt": 732, "response": "Alpha"}, "27": {"stimulus": 80, "trial": 27, "rt": 1036, "response": "Beta"}, "20": {"stimulus": 68, "trial": 20, "rt": 2003, "response": "Beta"}, "21": {"stimulus": 20, "trial": 21, "rt": 707, "response": "Alpha"}, "22": {"stimulus": 73, "trial": 22, "rt": 1108, "response": "Beta"}, "23": {"stimulus": 40, "trial": 23, "rt": 659, "response": "Alpha"}, "46": {"stimulus": 74, "trial": 46, "rt": 1036, "response": "Beta"}, "47": {"stimulus": 46, "trial": 47, "rt": 3612, "response": "Alpha"}, "44": {"stimulus": 43, "trial": 44, "rt": 660, "response": "Alpha"}, "45": {"stimulus": 21, "trial": 45, "rt": 1532, "response": "Alpha"}, "28": {"stimulus": 10, "trial": 28, "rt": 924, "response": "Alpha"}, "29": {"stimulus": 0, "trial": 29, "rt": 676, "response": "Alpha"}, "40": {"stimulus": 76, "trial": 40, "rt": 1564, "response": "Beta"}, "41": {"stimulus": 17, "trial": 41, "rt": 995, "response": "Alpha"}, "1": {"stimulus": 15, "trial": 1, "rt": 811, "response": "Alpha"}, "0": {"stimulus": 34, "trial": 0, "rt": 2128, "response": "Alpha"}, "3": {"stimulus": 67, "trial": 3, "rt": 1516, "response": "Alpha"}, "2": {"stimulus": 48, "trial": 2, "rt": 883, "response": "Alpha"}, "5": {"stimulus": 4, "trial": 5, "rt": 788, "response": "Alpha"}, "4": {"stimulus": 12, "trial": 4, "rt": 732, "response": "Alpha"}, "7": {"stimulus": 8, "trial": 7, "rt": 1458, "response": "Alpha"}, "6": {"stimulus": 29, "trial": 6, "rt": 676, "response": "Alpha"}, "9": {"stimulus": 35, "trial": 9, "rt": 703, "response": "Alpha"}, "8": {"stimulus": 59, "trial": 8, "rt": 959, "response": "Alpha"}, "78": {"stimulus": 77, "trial": 78, "rt": 1228, "response": "Beta"}, "51": {"stimulus": 64, "trial": 51, "rt": 747, "response": "Alpha"}, "39": {"stimulus": 63, "trial": 39, "rt": 1964, "response": "Beta"}, "65": {"stimulus": 11, "trial": 65, "rt": 932, "response": "Alpha"}, "76": {"stimulus": 9, "trial": 76, "rt": 1460, "response": "Alpha"}, "75": {"stimulus": 70, "trial": 75, "rt": 1137, "response": "Beta"}, "38": {"stimulus": 3, "trial": 38, "rt": 1652, "response": "Alpha"}, "73": {"stimulus": 41, "trial": 73, "rt": 827, "response": "Alpha"}, "72": {"stimulus": 18, "trial": 72, "rt": 948, "response": "Alpha"}, "71": {"stimulus": 79, "trial": 71, "rt": 1019, "response": "Beta"}, "70": {"stimulus": 6, "trial": 70, "rt": 620, "response": "Alpha"}, "59": {"stimulus": 38, "trial": 59, "rt": 803, "response": "Alpha"}, "79": {"stimulus": 66, "trial": 79, "rt": 1053, "response": "Beta"}, "58": {"stimulus": 75, "trial": 58, "rt": 970, "response": "Beta"}, "11": {"stimulus": 54, "trial": 11, "rt": 956, "response": "Alpha"}, "10": {"stimulus": 33, "trial": 10, "rt": 564, "response": "Alpha"}, "13": {"stimulus": 52, "trial": 13, "rt": 685, "response": "Alpha"}, "12": {"stimulus": 19, "trial": 12, "rt": 635, "response": "Alpha"}, "15": {"stimulus": 37, "trial": 15, "rt": 724, "response": "Alpha"}, "14": {"stimulus": 39, "trial": 14, "rt": 587, "response": "Alpha"}, "17": {"stimulus": 1, "trial": 17, "rt": 1708, "response": "Alpha"}, "16": {"stimulus": 36, "trial": 16, "rt": 563, "response": "Alpha"}, "19": {"stimulus": 25, "trial": 19, "rt": 700, "response": "Alpha"}, "18": {"stimulus": 78, "trial": 18, "rt": 996, "response": "Beta"}, "31": {"stimulus": 51, "trial": 31, "rt": 2708, "response": "Alpha"}, "30": {"stimulus": 28, "trial": 30, "rt": 1325, "response": "Alpha"}, "37": {"stimulus": 50, "trial": 37, "rt": 884, "response": "Alpha"}, "36": {"stimulus": 60, "trial": 36, "rt": 1178, "response": "Alpha"}, "35": {"stimulus": 30, "trial": 35, "rt": 899, "response": "Alpha"}, "34": {"stimulus": 5, "trial": 34, "rt": 965, "response": "Alpha"}, "33": {"stimulus": 27, "trial": 33, "rt": 1459, "response": "Alpha"}, "55": {"stimulus": 65, "trial": 55, "rt": 756, "response": "Alpha"}, "74": {"stimulus": 71, "trial": 74, "rt": 1822, "response": "Beta"}, "32": {"stimulus": 13, "trial": 32, "rt": 1964, "response": "Alpha"}, "57": {"stimulus": 32, "trial": 57, "rt": 478, "response": "Alpha"}, "50": {"stimulus": 69, "trial": 50, "rt": 1067, "response": "Alpha"}}}