{"generation": {"1": {"stimulus": 64, "trial": 1, "rt": 18792}, "0": {"stimulus": 63, "trial": 0, "rt": 17436}, "3": {"stimulus": 46, "trial": 3, "rt": 10205}, "2": {"stimulus": 74, "trial": 2, "rt": 9247}}, "info": {"finish": 1482176295402, "participant": 83, "exposed": true, "lab": false, "start": 1482176009782, "counterbalance": 0, "condition": "Bottom", "browser": {"platform": "Win32", "userAgent": "Mozilla/5.0 (Windows NT 10.0; WOW64) AppleWebKit/537.36 (KHTML, like Gecko) Chrome/55.0.2883.87 Safari/537.36"}}, "experiment": {"Paradigm": "TACL", "Stimuli": "Size-Color Squares", "Experiment": "Generating-Categories"}, "observation": {"11": {"stimulus": 14, "trial": 11, "rt": 2934}, "10": {"stimulus": 12, "trial": 10, "rt": 2940}, "1": {"stimulus": 32, "trial": 1, "rt": 3543}, "0": {"stimulus": 30, "trial": 0, "rt": 4223}, "3": {"stimulus": 12, "trial": 3, "rt": 2266}, "2": {"stimulus": 14, "trial": 2, "rt": 3023}, "5": {"stimulus": 12, "trial": 5, "rt": 2822}, "4": {"stimulus": 32, "trial": 4, "rt": 2998}, "7": {"stimulus": 14, "trial": 7, "rt": 3002}, "6": {"stimulus": 30, "trial": 6, "rt": 2700}, "9": {"stimulus": 30, "trial": 9, "rt": 2604}, "8": {"stimulus": 32, "trial": 8, "rt": 3720}}, "generalization": {"56": {"stimulus": 45, "trial": 56, "rt": 853, "response": "Alpha"}, "77": {"stimulus": 24, "trial": 77, "rt": 1121, "response": "Alpha"}, "54": {"stimulus": 23, "trial": 54, "rt": 1033, "response": "Alpha"}, "42": {"stimulus": 16, "trial": 42, "rt": 895, "response": "Alpha"}, "48": {"stimulus": 55, "trial": 48, "rt": 2979, "response": "Beta"}, "43": {"stimulus": 57, "trial": 43, "rt": 1124, "response": "Beta"}, "60": {"stimulus": 51, "trial": 60, "rt": 1590, "response": "Beta"}, "61": {"stimulus": 63, "trial": 61, "rt": 1274, "response": "Beta"}, "62": {"stimulus": 46, "trial": 62, "rt": 1239, "response": "Alpha"}, "63": {"stimulus": 1, "trial": 63, "rt": 589, "response": "Alpha"}, "64": {"stimulus": 15, "trial": 64, "rt": 623, "response": "Alpha"}, "49": {"stimulus": 41, "trial": 49, "rt": 2430, "response": "Alpha"}, "66": {"stimulus": 44, "trial": 66, "rt": 792, "response": "Alpha"}, "67": {"stimulus": 58, "trial": 67, "rt": 1663, "response": "Beta"}, "68": {"stimulus": 52, "trial": 68, "rt": 1537, "response": "Beta"}, "69": {"stimulus": 25, "trial": 69, "rt": 946, "response": "Alpha"}, "80": {"stimulus": 61, "trial": 80, "rt": 1260, "response": "Alpha"}, "52": {"stimulus": 13, "trial": 52, "rt": 1188, "response": "Alpha"}, "53": {"stimulus": 70, "trial": 53, "rt": 1515, "response": "Beta"}, "24": {"stimulus": 73, "trial": 24, "rt": 1142, "response": "Beta"}, "25": {"stimulus": 59, "trial": 25, "rt": 1067, "response": "Beta"}, "26": {"stimulus": 3, "trial": 26, "rt": 1143, "response": "Alpha"}, "27": {"stimulus": 76, "trial": 27, "rt": 1058, "response": "Beta"}, "20": {"stimulus": 17, "trial": 20, "rt": 1238, "response": "Alpha"}, "21": {"stimulus": 38, "trial": 21, "rt": 1004, "response": "Alpha"}, "22": {"stimulus": 40, "trial": 22, "rt": 924, "response": "Alpha"}, "23": {"stimulus": 4, "trial": 23, "rt": 1190, "response": "Alpha"}, "46": {"stimulus": 35, "trial": 46, "rt": 729, "response": "Alpha"}, "47": {"stimulus": 26, "trial": 47, "rt": 1688, "response": "Alpha"}, "44": {"stimulus": 77, "trial": 44, "rt": 674, "response": "Beta"}, "45": {"stimulus": 42, "trial": 45, "rt": 1166, "response": "Alpha"}, "28": {"stimulus": 79, "trial": 28, "rt": 669, "response": "Beta"}, "29": {"stimulus": 30, "trial": 29, "rt": 1402, "response": "Alpha"}, "40": {"stimulus": 67, "trial": 40, "rt": 1048, "response": "Beta"}, "41": {"stimulus": 12, "trial": 41, "rt": 1077, "response": "Alpha"}, "1": {"stimulus": 47, "trial": 1, "rt": 1932, "response": "Beta"}, "0": {"stimulus": 7, "trial": 0, "rt": 2669, "response": "Alpha"}, "3": {"stimulus": 6, "trial": 3, "rt": 1480, "response": "Alpha"}, "2": {"stimulus": 60, "trial": 2, "rt": 2727, "response": "Alpha"}, "5": {"stimulus": 69, "trial": 5, "rt": 4701, "response": "Beta"}, "4": {"stimulus": 2, "trial": 4, "rt": 1699, "response": "Alpha"}, "7": {"stimulus": 72, "trial": 7, "rt": 1186, "response": "Beta"}, "6": {"stimulus": 71, "trial": 6, "rt": 1170, "response": "Beta"}, "9": {"stimulus": 14, "trial": 9, "rt": 1074, "response": "Alpha"}, "8": {"stimulus": 53, "trial": 8, "rt": 2444, "response": "Alpha"}, "78": {"stimulus": 74, "trial": 78, "rt": 1032, "response": "Beta"}, "51": {"stimulus": 78, "trial": 51, "rt": 1191, "response": "Beta"}, "39": {"stimulus": 28, "trial": 39, "rt": 1218, "response": "Alpha"}, "65": {"stimulus": 29, "trial": 65, "rt": 622, "response": "Alpha"}, "76": {"stimulus": 64, "trial": 76, "rt": 993, "response": "Beta"}, "75": {"stimulus": 48, "trial": 75, "rt": 1081, "response": "Alpha"}, "38": {"stimulus": 68, "trial": 38, "rt": 1166, "response": "Beta"}, "73": {"stimulus": 11, "trial": 73, "rt": 951, "response": "Alpha"}, "72": {"stimulus": 75, "trial": 72, "rt": 1068, "response": "Beta"}, "71": {"stimulus": 20, "trial": 71, "rt": 672, "response": "Alpha"}, "70": {"stimulus": 37, "trial": 70, "rt": 792, "response": "Alpha"}, "59": {"stimulus": 66, "trial": 59, "rt": 669, "response": "Beta"}, "79": {"stimulus": 27, "trial": 79, "rt": 928, "response": "Alpha"}, "58": {"stimulus": 62, "trial": 58, "rt": 1275, "response": "Beta"}, "11": {"stimulus": 32, "trial": 11, "rt": 1402, "response": "Alpha"}, "10": {"stimulus": 56, "trial": 10, "rt": 2306, "response": "Beta"}, "13": {"stimulus": 0, "trial": 13, "rt": 1979, "response": "Alpha"}, "12": {"stimulus": 31, "trial": 12, "rt": 998, "response": "Alpha"}, "15": {"stimulus": 33, "trial": 15, "rt": 1730, "response": "Alpha"}, "14": {"stimulus": 54, "trial": 14, "rt": 2175, "response": "Beta"}, "17": {"stimulus": 5, "trial": 17, "rt": 1354, "response": "Alpha"}, "16": {"stimulus": 19, "trial": 16, "rt": 923, "response": "Alpha"}, "19": {"stimulus": 80, "trial": 19, "rt": 1158, "response": "Beta"}, "18": {"stimulus": 49, "trial": 18, "rt": 1613, "response": "Beta"}, "31": {"stimulus": 65, "trial": 31, "rt": 1296, "response": "Beta"}, "30": {"stimulus": 43, "trial": 30, "rt": 905, "response": "Alpha"}, "37": {"stimulus": 50, "trial": 37, "rt": 1283, "response": "Alpha"}, "36": {"stimulus": 8, "trial": 36, "rt": 1111, "response": "Alpha"}, "35": {"stimulus": 36, "trial": 35, "rt": 811, "response": "Alpha"}, "34": {"stimulus": 18, "trial": 34, "rt": 835, "response": "Alpha"}, "33": {"stimulus": 22, "trial": 33, "rt": 897, "response": "Alpha"}, "55": {"stimulus": 10, "trial": 55, "rt": 628, "response": "Alpha"}, "74": {"stimulus": 21, "trial": 74, "rt": 760, "response": "Alpha"}, "32": {"stimulus": 34, "trial": 32, "rt": 1559, "response": "Alpha"}, "57": {"stimulus": 39, "trial": 57, "rt": 655, "response": "Alpha"}, "50": {"stimulus": 9, "trial": 50, "rt": 730, "response": "Alpha"}}}