{"generation": {"1": {"stimulus": 12, "trial": 1, "rt": 7361}, "0": {"stimulus": 44, "trial": 0, "rt": 13304}, "3": {"stimulus": 72, "trial": 3, "rt": 4290}, "2": {"stimulus": 73, "trial": 2, "rt": 5889}}, "info": {"finish": 1482177095243, "participant": 86, "exposed": true, "lab": false, "start": 1482176254649, "counterbalance": 2, "condition": "Bottom", "browser": {"platform": "Win32", "userAgent": "Mozilla/5.0 (Windows NT 6.1; WOW64) AppleWebKit/537.36 (KHTML, like Gecko) Chrome/55.0.2883.87 Safari/537.36"}}, "experiment": {"Paradigm": "TACL", "Stimuli": "Size-Color Squares", "Experiment": "Generating-Categories"}, "observation": {"11": {"stimulus": 14, "trial": 11, "rt": 1122}, "10": {"stimulus": 30, "trial": 10, "rt": 875}, "1": {"stimulus": 30, "trial": 1, "rt": 1337}, "0": {"stimulus": 14, "trial": 0, "rt": 1869}, "3": {"stimulus": 12, "trial": 3, "rt": 931}, "2": {"stimulus": 32, "trial": 2, "rt": 961}, "5": {"stimulus": 30, "trial": 5, "rt": 963}, "4": {"stimulus": 14, "trial": 4, "rt": 883}, "7": {"stimulus": 32, "trial": 7, "rt": 563}, "6": {"stimulus": 12, "trial": 6, "rt": 963}, "9": {"stimulus": 32, "trial": 9, "rt": 899}, "8": {"stimulus": 12, "trial": 8, "rt": 867}}, "generalization": {"56": {"stimulus": 34, "trial": 56, "rt": 571, "response": "Alpha"}, "77": {"stimulus": 54, "trial": 77, "rt": 682, "response": "Beta"}, "54": {"stimulus": 29, "trial": 54, "rt": 507, "response": "Beta"}, "42": {"stimulus": 50, "trial": 42, "rt": 954, "response": "Alpha"}, "48": {"stimulus": 27, "trial": 48, "rt": 778, "response": "Beta"}, "43": {"stimulus": 18, "trial": 43, "rt": 538, "response": "Beta"}, "60": {"stimulus": 37, "trial": 60, "rt": 658, "response": "Alpha"}, "61": {"stimulus": 28, "trial": 61, "rt": 490, "response": "Alpha"}, "62": {"stimulus": 76, "trial": 62, "rt": 890, "response": "Alpha"}, "63": {"stimulus": 64, "trial": 63, "rt": 729, "response": "Beta"}, "64": {"stimulus": 62, "trial": 64, "rt": 789, "response": "Alpha"}, "49": {"stimulus": 44, "trial": 49, "rt": 579, "response": "Alpha"}, "66": {"stimulus": 59, "trial": 66, "rt": 562, "response": "Alpha"}, "67": {"stimulus": 57, "trial": 67, "rt": 971, "response": "Alpha"}, "68": {"stimulus": 26, "trial": 68, "rt": 2002, "response": "Alpha"}, "69": {"stimulus": 68, "trial": 69, "rt": 850, "response": "Alpha"}, "80": {"stimulus": 61, "trial": 80, "rt": 475, "response": "Alpha"}, "52": {"stimulus": 21, "trial": 52, "rt": 692, "response": "Beta"}, "53": {"stimulus": 72, "trial": 53, "rt": 723, "response": "Beta"}, "24": {"stimulus": 53, "trial": 24, "rt": 602, "response": "Alpha"}, "25": {"stimulus": 11, "trial": 25, "rt": 603, "response": "Beta"}, "26": {"stimulus": 58, "trial": 26, "rt": 1139, "response": "Alpha"}, "27": {"stimulus": 23, "trial": 27, "rt": 586, "response": "Beta"}, "20": {"stimulus": 25, "trial": 20, "rt": 944, "response": "Alpha"}, "21": {"stimulus": 65, "trial": 21, "rt": 723, "response": "Beta"}, "22": {"stimulus": 78, "trial": 22, "rt": 851, "response": "Alpha"}, "23": {"stimulus": 32, "trial": 23, "rt": 883, "response": "Alpha"}, "46": {"stimulus": 35, "trial": 46, "rt": 420, "response": "Alpha"}, "47": {"stimulus": 22, "trial": 47, "rt": 330, "response": "Alpha"}, "44": {"stimulus": 40, "trial": 44, "rt": 579, "response": "Alpha"}, "45": {"stimulus": 8, "trial": 45, "rt": 521, "response": "Alpha"}, "28": {"stimulus": 46, "trial": 28, "rt": 930, "response": "Alpha"}, "29": {"stimulus": 79, "trial": 29, "rt": 675, "response": "Alpha"}, "40": {"stimulus": 12, "trial": 40, "rt": 619, "response": "Beta"}, "41": {"stimulus": 47, "trial": 41, "rt": 483, "response": "Beta"}, "1": {"stimulus": 43, "trial": 1, "rt": 7106, "response": "Beta"}, "0": {"stimulus": 19, "trial": 0, "rt": 3672, "response": "Alpha"}, "3": {"stimulus": 70, "trial": 3, "rt": 1133, "response": "Beta"}, "2": {"stimulus": 38, "trial": 2, "rt": 1152, "response": "Alpha"}, "5": {"stimulus": 15, "trial": 5, "rt": 778, "response": "Beta"}, "4": {"stimulus": 60, "trial": 4, "rt": 1019, "response": "Alpha"}, "7": {"stimulus": 39, "trial": 7, "rt": 716, "response": "Alpha"}, "6": {"stimulus": 41, "trial": 6, "rt": 513, "response": "Beta"}, "9": {"stimulus": 2, "trial": 9, "rt": 595, "response": "Beta"}, "8": {"stimulus": 6, "trial": 8, "rt": 787, "response": "Alpha"}, "78": {"stimulus": 33, "trial": 78, "rt": 1026, "response": "Alpha"}, "51": {"stimulus": 71, "trial": 51, "rt": 457, "response": "Alpha"}, "39": {"stimulus": 42, "trial": 39, "rt": 595, "response": "Alpha"}, "65": {"stimulus": 20, "trial": 65, "rt": 610, "response": "Beta"}, "76": {"stimulus": 7, "trial": 76, "rt": 546, "response": "Alpha"}, "75": {"stimulus": 55, "trial": 75, "rt": 538, "response": "Alpha"}, "38": {"stimulus": 75, "trial": 38, "rt": 659, "response": "Beta"}, "73": {"stimulus": 48, "trial": 73, "rt": 538, "response": "Alpha"}, "72": {"stimulus": 69, "trial": 72, "rt": 475, "response": "Alpha"}, "71": {"stimulus": 9, "trial": 71, "rt": 1043, "response": "Beta"}, "70": {"stimulus": 56, "trial": 70, "rt": 603, "response": "Beta"}, "59": {"stimulus": 31, "trial": 59, "rt": 530, "response": "Alpha"}, "79": {"stimulus": 45, "trial": 79, "rt": 499, "response": "Beta"}, "58": {"stimulus": 80, "trial": 58, "rt": 387, "response": "Alpha"}, "11": {"stimulus": 5, "trial": 11, "rt": 779, "response": "Alpha"}, "10": {"stimulus": 63, "trial": 10, "rt": 1595, "response": "Beta"}, "13": {"stimulus": 0, "trial": 13, "rt": 739, "response": "Beta"}, "12": {"stimulus": 36, "trial": 12, "rt": 1323, "response": "Beta"}, "15": {"stimulus": 16, "trial": 15, "rt": 642, "response": "Alpha"}, "14": {"stimulus": 67, "trial": 14, "rt": 1418, "response": "Alpha"}, "17": {"stimulus": 52, "trial": 17, "rt": 890, "response": "Alpha"}, "16": {"stimulus": 73, "trial": 16, "rt": 714, "response": "Beta"}, "19": {"stimulus": 4, "trial": 19, "rt": 818, "response": "Alpha"}, "18": {"stimulus": 3, "trial": 18, "rt": 770, "response": "Beta"}, "31": {"stimulus": 51, "trial": 31, "rt": 763, "response": "Alpha"}, "30": {"stimulus": 10, "trial": 30, "rt": 642, "response": "Beta"}, "37": {"stimulus": 30, "trial": 37, "rt": 475, "response": "Beta"}, "36": {"stimulus": 17, "trial": 36, "rt": 595, "response": "Alpha"}, "35": {"stimulus": 1, "trial": 35, "rt": 451, "response": "Beta"}, "34": {"stimulus": 66, "trial": 34, "rt": 595, "response": "Beta"}, "33": {"stimulus": 24, "trial": 33, "rt": 434, "response": "Alpha"}, "55": {"stimulus": 14, "trial": 55, "rt": 507, "response": "Alpha"}, "74": {"stimulus": 77, "trial": 74, "rt": 554, "response": "Alpha"}, "32": {"stimulus": 13, "trial": 32, "rt": 922, "response": "Alpha"}, "57": {"stimulus": 49, "trial": 57, "rt": 547, "response": "Alpha"}, "50": {"stimulus": 74, "trial": 50, "rt": 491, "response": "Beta"}}}