{"generation": {"1": {"stimulus": 26, "trial": 1, "rt": 8268}, "0": {"stimulus": 80, "trial": 0, "rt": 16070}, "3": {"stimulus": 62, "trial": 3, "rt": 9539}, "2": {"stimulus": 44, "trial": 2, "rt": 6696}}, "info": {"finish": 1482176725867, "participant": 88, "exposed": true, "lab": false, "start": 1482176475803, "counterbalance": 6, "condition": "Bottom", "browser": {"platform": "Win32", "userAgent": "Mozilla/5.0 (Windows NT 10.0; Win64; x64) AppleWebKit/537.36 (KHTML, like Gecko) Chrome/55.0.2883.87 Safari/537.36"}}, "experiment": {"Paradigm": "TACL", "Stimuli": "Size-Color Squares", "Experiment": "Generating-Categories"}, "observation": {"11": {"stimulus": 30, "trial": 11, "rt": 1593}, "10": {"stimulus": 12, "trial": 10, "rt": 2503}, "1": {"stimulus": 12, "trial": 1, "rt": 2506}, "0": {"stimulus": 30, "trial": 0, "rt": 3835}, "3": {"stimulus": 14, "trial": 3, "rt": 2804}, "2": {"stimulus": 32, "trial": 2, "rt": 3316}, "5": {"stimulus": 12, "trial": 5, "rt": 1640}, "4": {"stimulus": 30, "trial": 4, "rt": 2389}, "7": {"stimulus": 14, "trial": 7, "rt": 1627}, "6": {"stimulus": 32, "trial": 6, "rt": 1971}, "9": {"stimulus": 14, "trial": 9, "rt": 2218}, "8": {"stimulus": 32, "trial": 8, "rt": 1777}}, "generalization": {"56": {"stimulus": 7, "trial": 56, "rt": 689, "response": "Beta"}, "77": {"stimulus": 30, "trial": 77, "rt": 1973, "response": "Alpha"}, "54": {"stimulus": 9, "trial": 54, "rt": 753, "response": "Beta"}, "42": {"stimulus": 11, "trial": 42, "rt": 3506, "response": "Beta"}, "48": {"stimulus": 46, "trial": 48, "rt": 1141, "response": "Beta"}, "43": {"stimulus": 60, "trial": 43, "rt": 2066, "response": "Alpha"}, "60": {"stimulus": 19, "trial": 60, "rt": 541, "response": "Beta"}, "61": {"stimulus": 21, "trial": 61, "rt": 1659, "response": "Alpha"}, "62": {"stimulus": 42, "trial": 62, "rt": 756, "response": "Beta"}, "63": {"stimulus": 50, "trial": 63, "rt": 1012, "response": "Alpha"}, "64": {"stimulus": 51, "trial": 64, "rt": 567, "response": "Alpha"}, "49": {"stimulus": 77, "trial": 49, "rt": 983, "response": "Alpha"}, "66": {"stimulus": 25, "trial": 66, "rt": 1820, "response": "Beta"}, "67": {"stimulus": 16, "trial": 67, "rt": 656, "response": "Beta"}, "68": {"stimulus": 63, "trial": 68, "rt": 708, "response": "Beta"}, "69": {"stimulus": 13, "trial": 69, "rt": 1466, "response": "Alpha"}, "80": {"stimulus": 33, "trial": 80, "rt": 815, "response": "Beta"}, "52": {"stimulus": 56, "trial": 52, "rt": 903, "response": "Beta"}, "53": {"stimulus": 24, "trial": 53, "rt": 1329, "response": "Alpha"}, "24": {"stimulus": 67, "trial": 24, "rt": 652, "response": "Alpha"}, "25": {"stimulus": 79, "trial": 25, "rt": 1077, "response": "Beta"}, "26": {"stimulus": 14, "trial": 26, "rt": 1165, "response": "Alpha"}, "27": {"stimulus": 8, "trial": 27, "rt": 837, "response": "Beta"}, "20": {"stimulus": 44, "trial": 20, "rt": 1049, "response": "Beta"}, "21": {"stimulus": 31, "trial": 21, "rt": 893, "response": "Alpha"}, "22": {"stimulus": 34, "trial": 22, "rt": 1040, "response": "Beta"}, "23": {"stimulus": 39, "trial": 23, "rt": 943, "response": "Alpha"}, "46": {"stimulus": 57, "trial": 46, "rt": 1631, "response": "Alpha"}, "47": {"stimulus": 76, "trial": 47, "rt": 656, "response": "Alpha"}, "44": {"stimulus": 27, "trial": 44, "rt": 779, "response": "Beta"}, "45": {"stimulus": 61, "trial": 45, "rt": 3868, "response": "Beta"}, "28": {"stimulus": 52, "trial": 28, "rt": 921, "response": "Beta"}, "29": {"stimulus": 20, "trial": 29, "rt": 3334, "response": "Beta"}, "40": {"stimulus": 37, "trial": 40, "rt": 805, "response": "Beta"}, "41": {"stimulus": 6, "trial": 41, "rt": 981, "response": "Alpha"}, "1": {"stimulus": 69, "trial": 1, "rt": 1685, "response": "Alpha"}, "0": {"stimulus": 5, "trial": 0, "rt": 1834, "response": "Alpha"}, "3": {"stimulus": 26, "trial": 3, "rt": 951, "response": "Beta"}, "2": {"stimulus": 22, "trial": 2, "rt": 936, "response": "Alpha"}, "5": {"stimulus": 59, "trial": 5, "rt": 1015, "response": "Alpha"}, "4": {"stimulus": 43, "trial": 4, "rt": 1564, "response": "Alpha"}, "7": {"stimulus": 68, "trial": 7, "rt": 1019, "response": "Alpha"}, "6": {"stimulus": 70, "trial": 6, "rt": 2680, "response": "Beta"}, "9": {"stimulus": 41, "trial": 9, "rt": 991, "response": "Alpha"}, "8": {"stimulus": 66, "trial": 8, "rt": 628, "response": "Alpha"}, "78": {"stimulus": 62, "trial": 78, "rt": 823, "response": "Beta"}, "51": {"stimulus": 75, "trial": 51, "rt": 1993, "response": "Beta"}, "39": {"stimulus": 53, "trial": 39, "rt": 929, "response": "Beta"}, "65": {"stimulus": 36, "trial": 65, "rt": 872, "response": "Beta"}, "76": {"stimulus": 45, "trial": 76, "rt": 539, "response": "Beta"}, "75": {"stimulus": 55, "trial": 75, "rt": 643, "response": "Beta"}, "38": {"stimulus": 65, "trial": 38, "rt": 590, "response": "Beta"}, "73": {"stimulus": 4, "trial": 73, "rt": 684, "response": "Alpha"}, "72": {"stimulus": 49, "trial": 72, "rt": 2743, "response": "Alpha"}, "71": {"stimulus": 47, "trial": 71, "rt": 998, "response": "Beta"}, "70": {"stimulus": 12, "trial": 70, "rt": 697, "response": "Alpha"}, "59": {"stimulus": 72, "trial": 59, "rt": 531, "response": "Beta"}, "79": {"stimulus": 38, "trial": 79, "rt": 2527, "response": "Beta"}, "58": {"stimulus": 64, "trial": 58, "rt": 595, "response": "Beta"}, "11": {"stimulus": 32, "trial": 11, "rt": 1110, "response": "Alpha"}, "10": {"stimulus": 0, "trial": 10, "rt": 2386, "response": "Beta"}, "13": {"stimulus": 15, "trial": 13, "rt": 1565, "response": "Alpha"}, "12": {"stimulus": 29, "trial": 12, "rt": 2287, "response": "Beta"}, "15": {"stimulus": 78, "trial": 15, "rt": 973, "response": "Alpha"}, "14": {"stimulus": 73, "trial": 14, "rt": 901, "response": "Beta"}, "17": {"stimulus": 3, "trial": 17, "rt": 1181, "response": "Alpha"}, "16": {"stimulus": 1, "trial": 16, "rt": 1031, "response": "Beta"}, "19": {"stimulus": 48, "trial": 19, "rt": 843, "response": "Alpha"}, "18": {"stimulus": 71, "trial": 18, "rt": 965, "response": "Beta"}, "31": {"stimulus": 74, "trial": 31, "rt": 840, "response": "Beta"}, "30": {"stimulus": 23, "trial": 30, "rt": 770, "response": "Alpha"}, "37": {"stimulus": 54, "trial": 37, "rt": 930, "response": "Beta"}, "36": {"stimulus": 17, "trial": 36, "rt": 1012, "response": "Beta"}, "35": {"stimulus": 2, "trial": 35, "rt": 1034, "response": "Beta"}, "34": {"stimulus": 18, "trial": 34, "rt": 791, "response": "Beta"}, "33": {"stimulus": 58, "trial": 33, "rt": 901, "response": "Alpha"}, "55": {"stimulus": 35, "trial": 55, "rt": 811, "response": "Beta"}, "74": {"stimulus": 28, "trial": 74, "rt": 859, "response": "Beta"}, "32": {"stimulus": 80, "trial": 32, "rt": 1095, "response": "Beta"}, "57": {"stimulus": 10, "trial": 57, "rt": 787, "response": "Beta"}, "50": {"stimulus": 40, "trial": 50, "rt": 799, "response": "Alpha"}}}