{"generation": {"1": {"stimulus": 71, "trial": 1, "rt": 6132}, "0": {"stimulus": 80, "trial": 0, "rt": 21308}, "3": {"stimulus": 53, "trial": 3, "rt": 6693}, "2": {"stimulus": 62, "trial": 2, "rt": 5496}}, "info": {"participant": 89, "exposed": true, "lab": false, "start": 1482176909237, "counterbalance": 6, "condition": "Middle", "browser": {"platform": "Win32", "userAgent": "Mozilla/5.0 (Windows NT 10.0; Win64; x64) AppleWebKit/537.36 (KHTML, like Gecko) Chrome/55.0.2883.87 Safari/537.36"}}, "experiment": {"Paradigm": "TACL", "Stimuli": "Size-Color Squares", "Experiment": "Generating-Categories"}, "observation": {"11": {"stimulus": 30, "trial": 11, "rt": 1336}, "10": {"stimulus": 50, "trial": 10, "rt": 1147}, "1": {"stimulus": 48, "trial": 1, "rt": 3979}, "0": {"stimulus": 32, "trial": 0, "rt": 5172}, "3": {"stimulus": 30, "trial": 3, "rt": 1978}, "2": {"stimulus": 50, "trial": 2, "rt": 1559}, "5": {"stimulus": 48, "trial": 5, "rt": 1477}, "4": {"stimulus": 32, "trial": 4, "rt": 1540}, "7": {"stimulus": 30, "trial": 7, "rt": 1084}, "6": {"stimulus": 50, "trial": 6, "rt": 1209}, "9": {"stimulus": 48, "trial": 9, "rt": 1201}, "8": {"stimulus": 32, "trial": 8, "rt": 1108}}, "generalization": {"56": {"stimulus": 73, "trial": 56, "rt": 506, "response": "Alpha"}, "77": {"stimulus": 14, "trial": 77, "rt": 479, "response": "Alpha"}, "54": {"stimulus": 50, "trial": 54, "rt": 2190, "response": "Beta"}, "42": {"stimulus": 19, "trial": 42, "rt": 847, "response": "Alpha"}, "48": {"stimulus": 0, "trial": 48, "rt": 463, "response": "Alpha"}, "43": {"stimulus": 26, "trial": 43, "rt": 749, "response": "Alpha"}, "60": {"stimulus": 77, "trial": 60, "rt": 608, "response": "Alpha"}, "61": {"stimulus": 37, "trial": 61, "rt": 569, "response": "Alpha"}, "62": {"stimulus": 58, "trial": 62, "rt": 882, "response": "Alpha"}, "63": {"stimulus": 40, "trial": 63, "rt": 757, "response": "Alpha"}, "64": {"stimulus": 28, "trial": 64, "rt": 583, "response": "Alpha"}, "49": {"stimulus": 45, "trial": 49, "rt": 506, "response": "Alpha"}, "66": {"stimulus": 30, "trial": 66, "rt": 595, "response": "Alpha"}, "67": {"stimulus": 76, "trial": 67, "rt": 915, "response": "Alpha"}, "68": {"stimulus": 5, "trial": 68, "rt": 646, "response": "Alpha"}, "69": {"stimulus": 44, "trial": 69, "rt": 2099, "response": "Beta"}, "80": {"stimulus": 13, "trial": 80, "rt": 453, "response": "Alpha"}, "52": {"stimulus": 75, "trial": 52, "rt": 723, "response": "Alpha"}, "53": {"stimulus": 9, "trial": 53, "rt": 545, "response": "Alpha"}, "24": {"stimulus": 66, "trial": 24, "rt": 1036, "response": "Alpha"}, "25": {"stimulus": 52, "trial": 25, "rt": 2903, "response": "Beta"}, "26": {"stimulus": 60, "trial": 26, "rt": 2483, "response": "Beta"}, "27": {"stimulus": 51, "trial": 27, "rt": 1169, "response": "Beta"}, "20": {"stimulus": 27, "trial": 20, "rt": 850, "response": "Alpha"}, "21": {"stimulus": 62, "trial": 21, "rt": 1527, "response": "Beta"}, "22": {"stimulus": 71, "trial": 22, "rt": 1594, "response": "Beta"}, "23": {"stimulus": 70, "trial": 23, "rt": 699, "response": "Beta"}, "46": {"stimulus": 63, "trial": 46, "rt": 812, "response": "Alpha"}, "47": {"stimulus": 3, "trial": 47, "rt": 678, "response": "Alpha"}, "44": {"stimulus": 42, "trial": 44, "rt": 1281, "response": "Alpha"}, "45": {"stimulus": 24, "trial": 45, "rt": 1099, "response": "Alpha"}, "28": {"stimulus": 12, "trial": 28, "rt": 977, "response": "Alpha"}, "29": {"stimulus": 2, "trial": 29, "rt": 502, "response": "Alpha"}, "40": {"stimulus": 1, "trial": 40, "rt": 532, "response": "Alpha"}, "41": {"stimulus": 80, "trial": 41, "rt": 1163, "response": "Beta"}, "1": {"stimulus": 74, "trial": 1, "rt": 1077, "response": "Alpha"}, "0": {"stimulus": 38, "trial": 0, "rt": 2937, "response": "Alpha"}, "3": {"stimulus": 48, "trial": 3, "rt": 890, "response": "Alpha"}, "2": {"stimulus": 33, "trial": 2, "rt": 2753, "response": "Alpha"}, "5": {"stimulus": 59, "trial": 5, "rt": 900, "response": "Alpha"}, "4": {"stimulus": 41, "trial": 4, "rt": 1135, "response": "Alpha"}, "7": {"stimulus": 69, "trial": 7, "rt": 1384, "response": "Alpha"}, "6": {"stimulus": 64, "trial": 6, "rt": 916, "response": "Alpha"}, "9": {"stimulus": 54, "trial": 9, "rt": 681, "response": "Alpha"}, "8": {"stimulus": 10, "trial": 8, "rt": 932, "response": "Alpha"}, "78": {"stimulus": 17, "trial": 78, "rt": 1030, "response": "Alpha"}, "51": {"stimulus": 22, "trial": 51, "rt": 634, "response": "Alpha"}, "39": {"stimulus": 36, "trial": 39, "rt": 902, "response": "Alpha"}, "65": {"stimulus": 34, "trial": 65, "rt": 1413, "response": "Alpha"}, "76": {"stimulus": 8, "trial": 76, "rt": 776, "response": "Alpha"}, "75": {"stimulus": 43, "trial": 75, "rt": 1616, "response": "Beta"}, "38": {"stimulus": 61, "trial": 38, "rt": 1195, "response": "Beta"}, "73": {"stimulus": 31, "trial": 73, "rt": 760, "response": "Alpha"}, "72": {"stimulus": 68, "trial": 72, "rt": 1344, "response": "Alpha"}, "71": {"stimulus": 65, "trial": 71, "rt": 531, "response": "Alpha"}, "70": {"stimulus": 32, "trial": 70, "rt": 638, "response": "Alpha"}, "59": {"stimulus": 7, "trial": 59, "rt": 1270, "response": "Alpha"}, "79": {"stimulus": 78, "trial": 79, "rt": 1432, "response": "Beta"}, "58": {"stimulus": 47, "trial": 58, "rt": 534, "response": "Alpha"}, "11": {"stimulus": 15, "trial": 11, "rt": 826, "response": "Alpha"}, "10": {"stimulus": 16, "trial": 10, "rt": 3155, "response": "Alpha"}, "13": {"stimulus": 57, "trial": 13, "rt": 636, "response": "Alpha"}, "12": {"stimulus": 39, "trial": 12, "rt": 686, "response": "Alpha"}, "15": {"stimulus": 25, "trial": 15, "rt": 1341, "response": "Alpha"}, "14": {"stimulus": 79, "trial": 14, "rt": 1656, "response": "Beta"}, "17": {"stimulus": 20, "trial": 17, "rt": 614, "response": "Alpha"}, "16": {"stimulus": 56, "trial": 16, "rt": 617, "response": "Alpha"}, "19": {"stimulus": 49, "trial": 19, "rt": 1005, "response": "Alpha"}, "18": {"stimulus": 21, "trial": 18, "rt": 544, "response": "Alpha"}, "31": {"stimulus": 11, "trial": 31, "rt": 519, "response": "Alpha"}, "30": {"stimulus": 55, "trial": 30, "rt": 535, "response": "Alpha"}, "37": {"stimulus": 72, "trial": 37, "rt": 631, "response": "Alpha"}, "36": {"stimulus": 35, "trial": 36, "rt": 1230, "response": "Alpha"}, "35": {"stimulus": 18, "trial": 35, "rt": 572, "response": "Alpha"}, "34": {"stimulus": 4, "trial": 34, "rt": 709, "response": "Alpha"}, "33": {"stimulus": 46, "trial": 33, "rt": 487, "response": "Alpha"}, "55": {"stimulus": 23, "trial": 55, "rt": 533, "response": "Alpha"}, "74": {"stimulus": 67, "trial": 74, "rt": 597, "response": "Alpha"}, "32": {"stimulus": 29, "trial": 32, "rt": 506, "response": "Alpha"}, "57": {"stimulus": 53, "trial": 57, "rt": 1206, "response": "Beta"}, "50": {"stimulus": 6, "trial": 50, "rt": 839, "response": "Alpha"}}}