{"generation": {"1": {"stimulus": 71, "trial": 1, "rt": 8761}, "0": {"stimulus": 80, "trial": 0, "rt": 12078}, "3": {"stimulus": 63, "trial": 3, "rt": 4035}, "2": {"stimulus": 72, "trial": 2, "rt": 6453}}, "info": {"finish": 1482177252031, "participant": 91, "exposed": true, "lab": false, "start": 1482177080773, "counterbalance": 6, "condition": "Bottom", "browser": {"platform": "Win32", "userAgent": "Mozilla/5.0 (Windows NT 6.1; WOW64) AppleWebKit/537.36 (KHTML, like Gecko) Chrome/55.0.2883.87 Safari/537.36"}}, "experiment": {"Paradigm": "TACL", "Stimuli": "Size-Color Squares", "Experiment": "Generating-Categories"}, "observation": {"11": {"stimulus": 30, "trial": 11, "rt": 815}, "10": {"stimulus": 12, "trial": 10, "rt": 865}, "1": {"stimulus": 32, "trial": 1, "rt": 1124}, "0": {"stimulus": 12, "trial": 0, "rt": 2265}, "3": {"stimulus": 30, "trial": 3, "rt": 964}, "2": {"stimulus": 14, "trial": 2, "rt": 1047}, "5": {"stimulus": 30, "trial": 5, "rt": 833}, "4": {"stimulus": 12, "trial": 4, "rt": 923}, "7": {"stimulus": 32, "trial": 7, "rt": 843}, "6": {"stimulus": 14, "trial": 6, "rt": 2257}, "9": {"stimulus": 32, "trial": 9, "rt": 889}, "8": {"stimulus": 14, "trial": 8, "rt": 861}}, "generalization": {"56": {"stimulus": 64, "trial": 56, "rt": 655, "response": "Beta"}, "77": {"stimulus": 68, "trial": 77, "rt": 537, "response": "Alpha"}, "54": {"stimulus": 38, "trial": 54, "rt": 859, "response": "Beta"}, "42": {"stimulus": 77, "trial": 42, "rt": 479, "response": "Alpha"}, "48": {"stimulus": 54, "trial": 48, "rt": 671, "response": "Beta"}, "43": {"stimulus": 58, "trial": 43, "rt": 527, "response": "Alpha"}, "60": {"stimulus": 28, "trial": 60, "rt": 741, "response": "Beta"}, "61": {"stimulus": 57, "trial": 61, "rt": 603, "response": "Alpha"}, "62": {"stimulus": 48, "trial": 62, "rt": 475, "response": "Alpha"}, "63": {"stimulus": 29, "trial": 63, "rt": 425, "response": "Alpha"}, "64": {"stimulus": 0, "trial": 64, "rt": 728, "response": "Beta"}, "49": {"stimulus": 33, "trial": 49, "rt": 666, "response": "Alpha"}, "66": {"stimulus": 53, "trial": 66, "rt": 583, "response": "Alpha"}, "67": {"stimulus": 4, "trial": 67, "rt": 578, "response": "Alpha"}, "68": {"stimulus": 67, "trial": 68, "rt": 491, "response": "Alpha"}, "69": {"stimulus": 75, "trial": 69, "rt": 875, "response": "Beta"}, "80": {"stimulus": 39, "trial": 80, "rt": 1033, "response": "Alpha"}, "52": {"stimulus": 17, "trial": 52, "rt": 499, "response": "Alpha"}, "53": {"stimulus": 49, "trial": 53, "rt": 685, "response": "Alpha"}, "24": {"stimulus": 34, "trial": 24, "rt": 1537, "response": "Alpha"}, "25": {"stimulus": 80, "trial": 25, "rt": 689, "response": "Alpha"}, "26": {"stimulus": 12, "trial": 26, "rt": 747, "response": "Alpha"}, "27": {"stimulus": 61, "trial": 27, "rt": 790, "response": "Alpha"}, "20": {"stimulus": 65, "trial": 20, "rt": 474, "response": "Beta"}, "21": {"stimulus": 37, "trial": 21, "rt": 580, "response": "Beta"}, "22": {"stimulus": 25, "trial": 22, "rt": 911, "response": "Alpha"}, "23": {"stimulus": 9, "trial": 23, "rt": 693, "response": "Beta"}, "46": {"stimulus": 69, "trial": 46, "rt": 549, "response": "Alpha"}, "47": {"stimulus": 18, "trial": 47, "rt": 621, "response": "Beta"}, "44": {"stimulus": 76, "trial": 44, "rt": 1011, "response": "Beta"}, "45": {"stimulus": 70, "trial": 45, "rt": 721, "response": "Alpha"}, "28": {"stimulus": 20, "trial": 28, "rt": 755, "response": "Beta"}, "29": {"stimulus": 21, "trial": 29, "rt": 493, "response": "Beta"}, "40": {"stimulus": 56, "trial": 40, "rt": 1263, "response": "Beta"}, "41": {"stimulus": 46, "trial": 41, "rt": 672, "response": "Beta"}, "1": {"stimulus": 78, "trial": 1, "rt": 1157, "response": "Beta"}, "0": {"stimulus": 60, "trial": 0, "rt": 1318, "response": "Alpha"}, "3": {"stimulus": 36, "trial": 3, "rt": 809, "response": "Beta"}, "2": {"stimulus": 30, "trial": 2, "rt": 635, "response": "Alpha"}, "5": {"stimulus": 52, "trial": 5, "rt": 645, "response": "Alpha"}, "4": {"stimulus": 79, "trial": 4, "rt": 593, "response": "Alpha"}, "7": {"stimulus": 14, "trial": 7, "rt": 963, "response": "Alpha"}, "6": {"stimulus": 42, "trial": 6, "rt": 679, "response": "Alpha"}, "9": {"stimulus": 73, "trial": 9, "rt": 696, "response": "Beta"}, "8": {"stimulus": 16, "trial": 8, "rt": 778, "response": "Alpha"}, "78": {"stimulus": 50, "trial": 78, "rt": 764, "response": "Alpha"}, "51": {"stimulus": 59, "trial": 51, "rt": 549, "response": "Alpha"}, "39": {"stimulus": 55, "trial": 39, "rt": 1003, "response": "Beta"}, "65": {"stimulus": 66, "trial": 65, "rt": 1185, "response": "Alpha"}, "76": {"stimulus": 31, "trial": 76, "rt": 399, "response": "Alpha"}, "75": {"stimulus": 40, "trial": 75, "rt": 469, "response": "Alpha"}, "38": {"stimulus": 7, "trial": 38, "rt": 493, "response": "Alpha"}, "73": {"stimulus": 32, "trial": 73, "rt": 601, "response": "Alpha"}, "72": {"stimulus": 8, "trial": 72, "rt": 419, "response": "Alpha"}, "71": {"stimulus": 26, "trial": 71, "rt": 707, "response": "Alpha"}, "70": {"stimulus": 72, "trial": 70, "rt": 515, "response": "Beta"}, "59": {"stimulus": 45, "trial": 59, "rt": 639, "response": "Beta"}, "79": {"stimulus": 62, "trial": 79, "rt": 676, "response": "Alpha"}, "58": {"stimulus": 44, "trial": 58, "rt": 363, "response": "Alpha"}, "11": {"stimulus": 24, "trial": 11, "rt": 697, "response": "Alpha"}, "10": {"stimulus": 35, "trial": 10, "rt": 713, "response": "Alpha"}, "13": {"stimulus": 10, "trial": 13, "rt": 435, "response": "Beta"}, "12": {"stimulus": 15, "trial": 12, "rt": 621, "response": "Alpha"}, "15": {"stimulus": 11, "trial": 15, "rt": 722, "response": "Beta"}, "14": {"stimulus": 13, "trial": 14, "rt": 786, "response": "Beta"}, "17": {"stimulus": 74, "trial": 17, "rt": 707, "response": "Beta"}, "16": {"stimulus": 71, "trial": 16, "rt": 535, "response": "Alpha"}, "19": {"stimulus": 1, "trial": 19, "rt": 557, "response": "Beta"}, "18": {"stimulus": 27, "trial": 18, "rt": 715, "response": "Beta"}, "31": {"stimulus": 5, "trial": 31, "rt": 661, "response": "Beta"}, "30": {"stimulus": 22, "trial": 30, "rt": 655, "response": "Beta"}, "37": {"stimulus": 2, "trial": 37, "rt": 967, "response": "Beta"}, "36": {"stimulus": 6, "trial": 36, "rt": 804, "response": "Alpha"}, "35": {"stimulus": 19, "trial": 35, "rt": 838, "response": "Beta"}, "34": {"stimulus": 43, "trial": 34, "rt": 1082, "response": "Alpha"}, "33": {"stimulus": 63, "trial": 33, "rt": 743, "response": "Beta"}, "55": {"stimulus": 23, "trial": 55, "rt": 447, "response": "Alpha"}, "74": {"stimulus": 41, "trial": 74, "rt": 441, "response": "Alpha"}, "32": {"stimulus": 47, "trial": 32, "rt": 585, "response": "Beta"}, "57": {"stimulus": 3, "trial": 57, "rt": 1491, "response": "Beta"}, "50": {"stimulus": 51, "trial": 50, "rt": 854, "response": "Beta"}}}