{"generation": {"1": {"stimulus": 22, "trial": 1, "rt": 6954}, "0": {"stimulus": 39, "trial": 0, "rt": 19035}, "3": {"stimulus": 36, "trial": 3, "rt": 5326}, "2": {"stimulus": 43, "trial": 2, "rt": 6667}}, "info": {"finish": 1482177475936, "participant": 92, "exposed": true, "lab": false, "start": 1482177200254, "counterbalance": 5, "condition": "Bottom", "browser": {"platform": "Win32", "userAgent": "Mozilla/5.0 (Windows NT 6.3; WOW64) AppleWebKit/537.36 (KHTML, like Gecko) Chrome/55.0.2883.87 Safari/537.36"}}, "experiment": {"Paradigm": "TACL", "Stimuli": "Size-Color Squares", "Experiment": "Generating-Categories"}, "observation": {"11": {"stimulus": 30, "trial": 11, "rt": 1348}, "10": {"stimulus": 14, "trial": 10, "rt": 1375}, "1": {"stimulus": 14, "trial": 1, "rt": 2823}, "0": {"stimulus": 30, "trial": 0, "rt": 4690}, "3": {"stimulus": 12, "trial": 3, "rt": 1747}, "2": {"stimulus": 32, "trial": 2, "rt": 1966}, "5": {"stimulus": 14, "trial": 5, "rt": 1309}, "4": {"stimulus": 30, "trial": 4, "rt": 1461}, "7": {"stimulus": 12, "trial": 7, "rt": 1224}, "6": {"stimulus": 32, "trial": 6, "rt": 1098}, "9": {"stimulus": 32, "trial": 9, "rt": 1451}, "8": {"stimulus": 12, "trial": 8, "rt": 1242}}, "generalization": {"56": {"stimulus": 63, "trial": 56, "rt": 1365, "response": "Beta"}, "77": {"stimulus": 23, "trial": 77, "rt": 858, "response": "Alpha"}, "54": {"stimulus": 9, "trial": 54, "rt": 1211, "response": "Beta"}, "42": {"stimulus": 50, "trial": 42, "rt": 995, "response": "Alpha"}, "48": {"stimulus": 65, "trial": 48, "rt": 1166, "response": "Alpha"}, "43": {"stimulus": 74, "trial": 43, "rt": 718, "response": "Alpha"}, "60": {"stimulus": 5, "trial": 60, "rt": 840, "response": "Alpha"}, "61": {"stimulus": 48, "trial": 61, "rt": 965, "response": "Alpha"}, "62": {"stimulus": 40, "trial": 62, "rt": 851, "response": "Alpha"}, "63": {"stimulus": 14, "trial": 63, "rt": 709, "response": "Alpha"}, "64": {"stimulus": 32, "trial": 64, "rt": 813, "response": "Alpha"}, "49": {"stimulus": 35, "trial": 49, "rt": 1602, "response": "Beta"}, "66": {"stimulus": 28, "trial": 66, "rt": 1374, "response": "Beta"}, "67": {"stimulus": 56, "trial": 67, "rt": 673, "response": "Beta"}, "68": {"stimulus": 33, "trial": 68, "rt": 2503, "response": "Beta"}, "69": {"stimulus": 43, "trial": 69, "rt": 1338, "response": "Beta"}, "80": {"stimulus": 76, "trial": 80, "rt": 1031, "response": "Alpha"}, "52": {"stimulus": 61, "trial": 52, "rt": 756, "response": "Beta"}, "53": {"stimulus": 29, "trial": 53, "rt": 1224, "response": "Alpha"}, "24": {"stimulus": 44, "trial": 24, "rt": 1373, "response": "Beta"}, "25": {"stimulus": 77, "trial": 25, "rt": 1318, "response": "Alpha"}, "26": {"stimulus": 11, "trial": 26, "rt": 2258, "response": "Alpha"}, "27": {"stimulus": 15, "trial": 27, "rt": 1165, "response": "Alpha"}, "20": {"stimulus": 39, "trial": 20, "rt": 1194, "response": "Alpha"}, "21": {"stimulus": 57, "trial": 21, "rt": 1098, "response": "Alpha"}, "22": {"stimulus": 78, "trial": 22, "rt": 2543, "response": "Alpha"}, "23": {"stimulus": 49, "trial": 23, "rt": 1376, "response": "Alpha"}, "46": {"stimulus": 2, "trial": 46, "rt": 1003, "response": "Alpha"}, "47": {"stimulus": 54, "trial": 47, "rt": 870, "response": "Beta"}, "44": {"stimulus": 42, "trial": 44, "rt": 832, "response": "Alpha"}, "45": {"stimulus": 51, "trial": 45, "rt": 2449, "response": "Alpha"}, "28": {"stimulus": 3, "trial": 28, "rt": 976, "response": "Alpha"}, "29": {"stimulus": 70, "trial": 29, "rt": 4428, "response": "Beta"}, "40": {"stimulus": 64, "trial": 40, "rt": 2212, "response": "Beta"}, "41": {"stimulus": 16, "trial": 41, "rt": 1097, "response": "Beta"}, "1": {"stimulus": 41, "trial": 1, "rt": 1269, "response": "Alpha"}, "0": {"stimulus": 68, "trial": 0, "rt": 2294, "response": "Alpha"}, "3": {"stimulus": 19, "trial": 3, "rt": 1327, "response": "Beta"}, "2": {"stimulus": 37, "trial": 2, "rt": 3670, "response": "Beta"}, "5": {"stimulus": 52, "trial": 5, "rt": 1281, "response": "Beta"}, "4": {"stimulus": 66, "trial": 4, "rt": 1108, "response": "Alpha"}, "7": {"stimulus": 55, "trial": 7, "rt": 4800, "response": "Beta"}, "6": {"stimulus": 4, "trial": 6, "rt": 1602, "response": "Alpha"}, "9": {"stimulus": 71, "trial": 9, "rt": 1261, "response": "Beta"}, "8": {"stimulus": 7, "trial": 8, "rt": 1155, "response": "Beta"}, "78": {"stimulus": 67, "trial": 78, "rt": 1003, "response": "Alpha"}, "51": {"stimulus": 25, "trial": 51, "rt": 2802, "response": "Beta"}, "39": {"stimulus": 62, "trial": 39, "rt": 869, "response": "Beta"}, "65": {"stimulus": 58, "trial": 65, "rt": 871, "response": "Alpha"}, "76": {"stimulus": 38, "trial": 76, "rt": 1557, "response": "Alpha"}, "75": {"stimulus": 26, "trial": 75, "rt": 1354, "response": "Beta"}, "38": {"stimulus": 53, "trial": 38, "rt": 1393, "response": "Beta"}, "73": {"stimulus": 1, "trial": 73, "rt": 1859, "response": "Beta"}, "72": {"stimulus": 0, "trial": 72, "rt": 954, "response": "Beta"}, "71": {"stimulus": 79, "trial": 71, "rt": 862, "response": "Beta"}, "70": {"stimulus": 8, "trial": 70, "rt": 727, "response": "Beta"}, "59": {"stimulus": 31, "trial": 59, "rt": 1167, "response": "Alpha"}, "79": {"stimulus": 17, "trial": 79, "rt": 1213, "response": "Beta"}, "58": {"stimulus": 34, "trial": 58, "rt": 1242, "response": "Beta"}, "11": {"stimulus": 24, "trial": 11, "rt": 1433, "response": "Alpha"}, "10": {"stimulus": 6, "trial": 10, "rt": 1337, "response": "Alpha"}, "13": {"stimulus": 30, "trial": 13, "rt": 2373, "response": "Alpha"}, "12": {"stimulus": 69, "trial": 12, "rt": 1584, "response": "Alpha"}, "15": {"stimulus": 73, "trial": 15, "rt": 1345, "response": "Beta"}, "14": {"stimulus": 10, "trial": 14, "rt": 1126, "response": "Beta"}, "17": {"stimulus": 45, "trial": 17, "rt": 1090, "response": "Beta"}, "16": {"stimulus": 36, "trial": 16, "rt": 1327, "response": "Beta"}, "19": {"stimulus": 60, "trial": 19, "rt": 1212, "response": "Beta"}, "18": {"stimulus": 20, "trial": 18, "rt": 1355, "response": "Alpha"}, "31": {"stimulus": 21, "trial": 31, "rt": 1156, "response": "Alpha"}, "30": {"stimulus": 46, "trial": 30, "rt": 1758, "response": "Beta"}, "37": {"stimulus": 18, "trial": 37, "rt": 1690, "response": "Beta"}, "36": {"stimulus": 12, "trial": 36, "rt": 1489, "response": "Alpha"}, "35": {"stimulus": 80, "trial": 35, "rt": 955, "response": "Beta"}, "34": {"stimulus": 27, "trial": 34, "rt": 1029, "response": "Beta"}, "33": {"stimulus": 47, "trial": 33, "rt": 1460, "response": "Alpha"}, "55": {"stimulus": 22, "trial": 55, "rt": 1186, "response": "Alpha"}, "74": {"stimulus": 75, "trial": 74, "rt": 1098, "response": "Alpha"}, "32": {"stimulus": 72, "trial": 32, "rt": 1050, "response": "Beta"}, "57": {"stimulus": 13, "trial": 57, "rt": 1336, "response": "Alpha"}, "50": {"stimulus": 59, "trial": 50, "rt": 1325, "response": "Alpha"}}}