{"generation": {"1": {"stimulus": 6, "trial": 1, "rt": 5308}, "0": {"stimulus": 48, "trial": 0, "rt": 6411}, "3": {"stimulus": 18, "trial": 3, "rt": 5099}, "2": {"stimulus": 15, "trial": 2, "rt": 5695}}, "info": {"finish": 1482177411046, "participant": 93, "exposed": true, "lab": false, "start": 1482177222473, "counterbalance": 0, "condition": "Middle", "browser": {"platform": "Win32", "userAgent": "Mozilla/5.0 (Windows NT 10.0; Win64; x64) AppleWebKit/537.36 (KHTML, like Gecko) Chrome/55.0.2883.87 Safari/537.36"}}, "experiment": {"Paradigm": "TACL", "Stimuli": "Size-Color Squares", "Experiment": "Generating-Categories"}, "observation": {"11": {"stimulus": 30, "trial": 11, "rt": 723}, "10": {"stimulus": 50, "trial": 10, "rt": 761}, "1": {"stimulus": 30, "trial": 1, "rt": 1330}, "0": {"stimulus": 32, "trial": 0, "rt": 16298}, "3": {"stimulus": 48, "trial": 3, "rt": 928}, "2": {"stimulus": 50, "trial": 2, "rt": 1048}, "5": {"stimulus": 32, "trial": 5, "rt": 743}, "4": {"stimulus": 50, "trial": 4, "rt": 880}, "7": {"stimulus": 48, "trial": 7, "rt": 741}, "6": {"stimulus": 30, "trial": 6, "rt": 819}, "9": {"stimulus": 32, "trial": 9, "rt": 731}, "8": {"stimulus": 48, "trial": 8, "rt": 752}}, "generalization": {"56": {"stimulus": 10, "trial": 56, "rt": 959, "response": "Beta"}, "77": {"stimulus": 54, "trial": 77, "rt": 708, "response": "Alpha"}, "54": {"stimulus": 30, "trial": 54, "rt": 672, "response": "Beta"}, "42": {"stimulus": 62, "trial": 42, "rt": 602, "response": "Alpha"}, "48": {"stimulus": 76, "trial": 48, "rt": 410, "response": "Alpha"}, "43": {"stimulus": 59, "trial": 43, "rt": 739, "response": "Alpha"}, "60": {"stimulus": 29, "trial": 60, "rt": 760, "response": "Beta"}, "61": {"stimulus": 28, "trial": 61, "rt": 432, "response": "Beta"}, "62": {"stimulus": 66, "trial": 62, "rt": 705, "response": "Alpha"}, "63": {"stimulus": 21, "trial": 63, "rt": 567, "response": "Beta"}, "64": {"stimulus": 24, "trial": 64, "rt": 437, "response": "Beta"}, "49": {"stimulus": 42, "trial": 49, "rt": 403, "response": "Alpha"}, "66": {"stimulus": 32, "trial": 66, "rt": 899, "response": "Beta"}, "67": {"stimulus": 52, "trial": 67, "rt": 593, "response": "Alpha"}, "68": {"stimulus": 56, "trial": 68, "rt": 500, "response": "Beta"}, "69": {"stimulus": 43, "trial": 69, "rt": 511, "response": "Beta"}, "80": {"stimulus": 13, "trial": 80, "rt": 575, "response": "Beta"}, "52": {"stimulus": 31, "trial": 52, "rt": 758, "response": "Beta"}, "53": {"stimulus": 64, "trial": 53, "rt": 516, "response": "Alpha"}, "24": {"stimulus": 19, "trial": 24, "rt": 861, "response": "Beta"}, "25": {"stimulus": 50, "trial": 25, "rt": 636, "response": "Alpha"}, "26": {"stimulus": 40, "trial": 26, "rt": 567, "response": "Alpha"}, "27": {"stimulus": 18, "trial": 27, "rt": 721, "response": "Beta"}, "20": {"stimulus": 80, "trial": 20, "rt": 330, "response": "Beta"}, "21": {"stimulus": 61, "trial": 21, "rt": 766, "response": "Alpha"}, "22": {"stimulus": 60, "trial": 22, "rt": 637, "response": "Alpha"}, "23": {"stimulus": 0, "trial": 23, "rt": 638, "response": "Beta"}, "46": {"stimulus": 79, "trial": 46, "rt": 601, "response": "Alpha"}, "47": {"stimulus": 48, "trial": 47, "rt": 430, "response": "Alpha"}, "44": {"stimulus": 12, "trial": 44, "rt": 646, "response": "Beta"}, "45": {"stimulus": 15, "trial": 45, "rt": 731, "response": "Beta"}, "28": {"stimulus": 55, "trial": 28, "rt": 871, "response": "Alpha"}, "29": {"stimulus": 72, "trial": 29, "rt": 949, "response": "Alpha"}, "40": {"stimulus": 41, "trial": 40, "rt": 1062, "response": "Alpha"}, "41": {"stimulus": 17, "trial": 41, "rt": 631, "response": "Beta"}, "1": {"stimulus": 9, "trial": 1, "rt": 1183, "response": "Beta"}, "0": {"stimulus": 53, "trial": 0, "rt": 3125, "response": "Alpha"}, "3": {"stimulus": 77, "trial": 3, "rt": 1088, "response": "Alpha"}, "2": {"stimulus": 57, "trial": 2, "rt": 703, "response": "Alpha"}, "5": {"stimulus": 1, "trial": 5, "rt": 710, "response": "Beta"}, "4": {"stimulus": 63, "trial": 4, "rt": 867, "response": "Alpha"}, "7": {"stimulus": 71, "trial": 7, "rt": 790, "response": "Alpha"}, "6": {"stimulus": 16, "trial": 6, "rt": 694, "response": "Alpha"}, "9": {"stimulus": 68, "trial": 9, "rt": 840, "response": "Alpha"}, "8": {"stimulus": 20, "trial": 8, "rt": 699, "response": "Beta"}, "78": {"stimulus": 25, "trial": 78, "rt": 1076, "response": "Beta"}, "51": {"stimulus": 58, "trial": 51, "rt": 429, "response": "Alpha"}, "39": {"stimulus": 3, "trial": 39, "rt": 645, "response": "Beta"}, "65": {"stimulus": 45, "trial": 65, "rt": 619, "response": "Alpha"}, "76": {"stimulus": 8, "trial": 76, "rt": 673, "response": "Beta"}, "75": {"stimulus": 38, "trial": 75, "rt": 845, "response": "Alpha"}, "38": {"stimulus": 34, "trial": 38, "rt": 1015, "response": "Alpha"}, "73": {"stimulus": 46, "trial": 73, "rt": 855, "response": "Alpha"}, "72": {"stimulus": 74, "trial": 72, "rt": 581, "response": "Beta"}, "71": {"stimulus": 23, "trial": 71, "rt": 556, "response": "Beta"}, "70": {"stimulus": 67, "trial": 70, "rt": 530, "response": "Alpha"}, "59": {"stimulus": 44, "trial": 59, "rt": 654, "response": "Beta"}, "79": {"stimulus": 70, "trial": 79, "rt": 516, "response": "Alpha"}, "58": {"stimulus": 37, "trial": 58, "rt": 773, "response": "Alpha"}, "11": {"stimulus": 2, "trial": 11, "rt": 653, "response": "Beta"}, "10": {"stimulus": 49, "trial": 10, "rt": 839, "response": "Alpha"}, "13": {"stimulus": 27, "trial": 13, "rt": 680, "response": "Beta"}, "12": {"stimulus": 5, "trial": 12, "rt": 607, "response": "Beta"}, "15": {"stimulus": 4, "trial": 15, "rt": 575, "response": "Beta"}, "14": {"stimulus": 78, "trial": 14, "rt": 758, "response": "Alpha"}, "17": {"stimulus": 7, "trial": 17, "rt": 492, "response": "Beta"}, "16": {"stimulus": 35, "trial": 16, "rt": 767, "response": "Beta"}, "19": {"stimulus": 33, "trial": 19, "rt": 332, "response": "Beta"}, "18": {"stimulus": 26, "trial": 18, "rt": 443, "response": "Beta"}, "31": {"stimulus": 36, "trial": 31, "rt": 1054, "response": "Alpha"}, "30": {"stimulus": 73, "trial": 30, "rt": 496, "response": "Alpha"}, "37": {"stimulus": 14, "trial": 37, "rt": 765, "response": "Beta"}, "36": {"stimulus": 11, "trial": 36, "rt": 411, "response": "Alpha"}, "35": {"stimulus": 75, "trial": 35, "rt": 1083, "response": "Alpha"}, "34": {"stimulus": 47, "trial": 34, "rt": 722, "response": "Alpha"}, "33": {"stimulus": 22, "trial": 33, "rt": 693, "response": "Beta"}, "55": {"stimulus": 39, "trial": 55, "rt": 758, "response": "Beta"}, "74": {"stimulus": 69, "trial": 74, "rt": 618, "response": "Alpha"}, "32": {"stimulus": 51, "trial": 32, "rt": 478, "response": "Alpha"}, "57": {"stimulus": 6, "trial": 57, "rt": 494, "response": "Beta"}, "50": {"stimulus": 65, "trial": 50, "rt": 426, "response": "Alpha"}}}