{"generation": {"1": {"stimulus": 0, "trial": 1, "rt": 7805}, "0": {"stimulus": 72, "trial": 0, "rt": 15699}, "3": {"stimulus": 18, "trial": 3, "rt": 6403}, "2": {"stimulus": 36, "trial": 2, "rt": 3679}}, "info": {"finish": 1482181699128, "participant": 96, "exposed": true, "lab": false, "start": 1482181415169, "counterbalance": 0, "condition": "Bottom", "browser": {"platform": "Win32", "userAgent": "Mozilla/5.0 (Windows NT 10.0; WOW64) AppleWebKit/537.36 (KHTML, like Gecko) Chrome/55.0.2883.87 Safari/537.36"}}, "experiment": {"Paradigm": "TACL", "Stimuli": "Size-Color Squares", "Experiment": "Generating-Categories"}, "observation": {"11": {"stimulus": 12, "trial": 11, "rt": 2685}, "10": {"stimulus": 32, "trial": 10, "rt": 2210}, "1": {"stimulus": 30, "trial": 1, "rt": 2479}, "0": {"stimulus": 14, "trial": 0, "rt": 3041}, "3": {"stimulus": 12, "trial": 3, "rt": 2326}, "2": {"stimulus": 32, "trial": 2, "rt": 2913}, "5": {"stimulus": 32, "trial": 5, "rt": 1945}, "4": {"stimulus": 14, "trial": 4, "rt": 4364}, "7": {"stimulus": 12, "trial": 7, "rt": 2271}, "6": {"stimulus": 30, "trial": 6, "rt": 1722}, "9": {"stimulus": 14, "trial": 9, "rt": 1878}, "8": {"stimulus": 30, "trial": 8, "rt": 1893}}, "generalization": {"56": {"stimulus": 35, "trial": 56, "rt": 940, "response": "Alpha"}, "77": {"stimulus": 39, "trial": 77, "rt": 1157, "response": "Beta"}, "54": {"stimulus": 61, "trial": 54, "rt": 1237, "response": "Alpha"}, "42": {"stimulus": 54, "trial": 42, "rt": 949, "response": "Beta"}, "48": {"stimulus": 69, "trial": 48, "rt": 793, "response": "Alpha"}, "43": {"stimulus": 67, "trial": 43, "rt": 2239, "response": "Beta"}, "60": {"stimulus": 11, "trial": 60, "rt": 1083, "response": "Beta"}, "61": {"stimulus": 73, "trial": 61, "rt": 872, "response": "Beta"}, "62": {"stimulus": 29, "trial": 62, "rt": 670, "response": "Beta"}, "63": {"stimulus": 68, "trial": 63, "rt": 1772, "response": "Alpha"}, "64": {"stimulus": 52, "trial": 64, "rt": 969, "response": "Alpha"}, "49": {"stimulus": 64, "trial": 49, "rt": 1033, "response": "Beta"}, "66": {"stimulus": 12, "trial": 66, "rt": 1125, "response": "Beta"}, "67": {"stimulus": 30, "trial": 67, "rt": 788, "response": "Beta"}, "68": {"stimulus": 26, "trial": 68, "rt": 980, "response": "Alpha"}, "69": {"stimulus": 36, "trial": 69, "rt": 1002, "response": "Beta"}, "80": {"stimulus": 3, "trial": 80, "rt": 887, "response": "Beta"}, "52": {"stimulus": 43, "trial": 52, "rt": 900, "response": "Alpha"}, "53": {"stimulus": 15, "trial": 53, "rt": 1480, "response": "Alpha"}, "24": {"stimulus": 7, "trial": 24, "rt": 1084, "response": "Alpha"}, "25": {"stimulus": 2, "trial": 25, "rt": 1164, "response": "Beta"}, "26": {"stimulus": 80, "trial": 26, "rt": 1115, "response": "Alpha"}, "27": {"stimulus": 76, "trial": 27, "rt": 4445, "response": "Beta"}, "20": {"stimulus": 9, "trial": 20, "rt": 1156, "response": "Beta"}, "21": {"stimulus": 46, "trial": 21, "rt": 1078, "response": "Beta"}, "22": {"stimulus": 27, "trial": 22, "rt": 1087, "response": "Beta"}, "23": {"stimulus": 57, "trial": 23, "rt": 1121, "response": "Beta"}, "46": {"stimulus": 31, "trial": 46, "rt": 2901, "response": "Beta"}, "47": {"stimulus": 5, "trial": 47, "rt": 923, "response": "Alpha"}, "44": {"stimulus": 24, "trial": 44, "rt": 951, "response": "Alpha"}, "45": {"stimulus": 34, "trial": 45, "rt": 691, "response": "Alpha"}, "28": {"stimulus": 51, "trial": 28, "rt": 1350, "response": "Alpha"}, "29": {"stimulus": 66, "trial": 29, "rt": 989, "response": "Beta"}, "40": {"stimulus": 65, "trial": 40, "rt": 1120, "response": "Beta"}, "41": {"stimulus": 33, "trial": 41, "rt": 1356, "response": "Alpha"}, "1": {"stimulus": 70, "trial": 1, "rt": 1957, "response": "Alpha"}, "0": {"stimulus": 55, "trial": 0, "rt": 3448, "response": "Beta"}, "3": {"stimulus": 22, "trial": 3, "rt": 1553, "response": "Alpha"}, "2": {"stimulus": 59, "trial": 2, "rt": 2294, "response": "Alpha"}, "5": {"stimulus": 6, "trial": 5, "rt": 1390, "response": "Alpha"}, "4": {"stimulus": 62, "trial": 4, "rt": 1796, "response": "Alpha"}, "7": {"stimulus": 40, "trial": 7, "rt": 2145, "response": "Alpha"}, "6": {"stimulus": 17, "trial": 6, "rt": 1237, "response": "Alpha"}, "9": {"stimulus": 53, "trial": 9, "rt": 1178, "response": "Alpha"}, "8": {"stimulus": 47, "trial": 8, "rt": 1476, "response": "Beta"}, "78": {"stimulus": 45, "trial": 78, "rt": 917, "response": "Beta"}, "51": {"stimulus": 44, "trial": 51, "rt": 952, "response": "Alpha"}, "39": {"stimulus": 79, "trial": 39, "rt": 1208, "response": "Alpha"}, "65": {"stimulus": 71, "trial": 65, "rt": 1019, "response": "Alpha"}, "76": {"stimulus": 18, "trial": 76, "rt": 998, "response": "Beta"}, "75": {"stimulus": 63, "trial": 75, "rt": 1047, "response": "Beta"}, "38": {"stimulus": 50, "trial": 38, "rt": 1041, "response": "Alpha"}, "73": {"stimulus": 20, "trial": 73, "rt": 1129, "response": "Beta"}, "72": {"stimulus": 32, "trial": 72, "rt": 707, "response": "Alpha"}, "71": {"stimulus": 14, "trial": 71, "rt": 712, "response": "Alpha"}, "70": {"stimulus": 4, "trial": 70, "rt": 2361, "response": "Alpha"}, "59": {"stimulus": 41, "trial": 59, "rt": 810, "response": "Alpha"}, "79": {"stimulus": 10, "trial": 79, "rt": 790, "response": "Beta"}, "58": {"stimulus": 78, "trial": 58, "rt": 2580, "response": "Alpha"}, "11": {"stimulus": 77, "trial": 11, "rt": 1813, "response": "Alpha"}, "10": {"stimulus": 28, "trial": 10, "rt": 1161, "response": "Beta"}, "13": {"stimulus": 38, "trial": 13, "rt": 1415, "response": "Beta"}, "12": {"stimulus": 49, "trial": 12, "rt": 1643, "response": "Alpha"}, "15": {"stimulus": 48, "trial": 15, "rt": 1526, "response": "Beta"}, "14": {"stimulus": 8, "trial": 14, "rt": 1199, "response": "Alpha"}, "17": {"stimulus": 56, "trial": 17, "rt": 1156, "response": "Beta"}, "16": {"stimulus": 1, "trial": 16, "rt": 1134, "response": "Beta"}, "19": {"stimulus": 72, "trial": 19, "rt": 1033, "response": "Beta"}, "18": {"stimulus": 19, "trial": 18, "rt": 1266, "response": "Beta"}, "31": {"stimulus": 13, "trial": 31, "rt": 3747, "response": "Alpha"}, "30": {"stimulus": 60, "trial": 30, "rt": 1035, "response": "Alpha"}, "37": {"stimulus": 23, "trial": 37, "rt": 1195, "response": "Alpha"}, "36": {"stimulus": 58, "trial": 36, "rt": 3321, "response": "Alpha"}, "35": {"stimulus": 21, "trial": 35, "rt": 1422, "response": "Beta"}, "34": {"stimulus": 37, "trial": 34, "rt": 1151, "response": "Beta"}, "33": {"stimulus": 75, "trial": 33, "rt": 1117, "response": "Beta"}, "55": {"stimulus": 16, "trial": 55, "rt": 1082, "response": "Alpha"}, "74": {"stimulus": 0, "trial": 74, "rt": 945, "response": "Beta"}, "32": {"stimulus": 42, "trial": 32, "rt": 1078, "response": "Alpha"}, "57": {"stimulus": 74, "trial": 57, "rt": 1507, "response": "Beta"}, "50": {"stimulus": 25, "trial": 50, "rt": 885, "response": "Alpha"}}}