{"generation": {"1": {"stimulus": 74, "trial": 1, "rt": 7627}, "0": {"stimulus": 77, "trial": 0, "rt": 16675}, "3": {"stimulus": 63, "trial": 3, "rt": 10771}, "2": {"stimulus": 72, "trial": 2, "rt": 5483}}, "info": {"finish": 1482181932419, "participant": 97, "exposed": true, "lab": false, "start": 1482181419398, "counterbalance": 4, "condition": "Middle", "browser": {"platform": "Win32", "userAgent": "Mozilla/5.0 (Windows NT 6.0; WOW64) AppleWebKit/537.36 (KHTML, like Gecko) Chrome/49.0.2623.112 Safari/537.36"}}, "experiment": {"Paradigm": "TACL", "Stimuli": "Size-Color Squares", "Experiment": "Generating-Categories"}, "observation": {"11": {"stimulus": 48, "trial": 11, "rt": 4811}, "10": {"stimulus": 32, "trial": 10, "rt": 13452}, "1": {"stimulus": 50, "trial": 1, "rt": 3451}, "0": {"stimulus": 48, "trial": 0, "rt": 3490}, "3": {"stimulus": 30, "trial": 3, "rt": 2131}, "2": {"stimulus": 32, "trial": 2, "rt": 2531}, "5": {"stimulus": 48, "trial": 5, "rt": 2475}, "4": {"stimulus": 30, "trial": 4, "rt": 2115}, "7": {"stimulus": 50, "trial": 7, "rt": 1948}, "6": {"stimulus": 32, "trial": 6, "rt": 2340}, "9": {"stimulus": 30, "trial": 9, "rt": 1876}, "8": {"stimulus": 50, "trial": 8, "rt": 1460}}, "generalization": {"56": {"stimulus": 54, "trial": 56, "rt": 4067, "response": "Beta"}, "77": {"stimulus": 44, "trial": 77, "rt": 1188, "response": "Alpha"}, "54": {"stimulus": 55, "trial": 54, "rt": 1835, "response": "Beta"}, "42": {"stimulus": 62, "trial": 42, "rt": 4604, "response": "Beta"}, "48": {"stimulus": 38, "trial": 48, "rt": 956, "response": "Alpha"}, "43": {"stimulus": 57, "trial": 43, "rt": 924, "response": "Beta"}, "60": {"stimulus": 72, "trial": 60, "rt": 795, "response": "Beta"}, "61": {"stimulus": 34, "trial": 61, "rt": 1068, "response": "Alpha"}, "62": {"stimulus": 60, "trial": 62, "rt": 4644, "response": "Beta"}, "63": {"stimulus": 73, "trial": 63, "rt": 779, "response": "Beta"}, "64": {"stimulus": 80, "trial": 64, "rt": 964, "response": "Beta"}, "49": {"stimulus": 42, "trial": 49, "rt": 708, "response": "Alpha"}, "66": {"stimulus": 15, "trial": 66, "rt": 5364, "response": "Beta"}, "67": {"stimulus": 79, "trial": 67, "rt": 980, "response": "Beta"}, "68": {"stimulus": 40, "trial": 68, "rt": 971, "response": "Alpha"}, "69": {"stimulus": 39, "trial": 69, "rt": 596, "response": "Alpha"}, "80": {"stimulus": 50, "trial": 80, "rt": 1123, "response": "Alpha"}, "52": {"stimulus": 4, "trial": 52, "rt": 948, "response": "Beta"}, "53": {"stimulus": 5, "trial": 53, "rt": 556, "response": "Beta"}, "24": {"stimulus": 7, "trial": 24, "rt": 1131, "response": "Beta"}, "25": {"stimulus": 29, "trial": 25, "rt": 2236, "response": "Alpha"}, "26": {"stimulus": 49, "trial": 26, "rt": 932, "response": "Alpha"}, "27": {"stimulus": 26, "trial": 27, "rt": 5163, "response": "Beta"}, "20": {"stimulus": 43, "trial": 20, "rt": 1068, "response": "Alpha"}, "21": {"stimulus": 70, "trial": 21, "rt": 1020, "response": "Beta"}, "22": {"stimulus": 47, "trial": 22, "rt": 5220, "response": "Alpha"}, "23": {"stimulus": 61, "trial": 23, "rt": 756, "response": "Alpha"}, "46": {"stimulus": 37, "trial": 46, "rt": 1060, "response": "Alpha"}, "47": {"stimulus": 65, "trial": 47, "rt": 1004, "response": "Beta"}, "44": {"stimulus": 63, "trial": 44, "rt": 996, "response": "Beta"}, "45": {"stimulus": 56, "trial": 45, "rt": 6316, "response": "Beta"}, "28": {"stimulus": 2, "trial": 28, "rt": 660, "response": "Beta"}, "29": {"stimulus": 22, "trial": 29, "rt": 756, "response": "Beta"}, "40": {"stimulus": 24, "trial": 40, "rt": 956, "response": "Alpha"}, "41": {"stimulus": 9, "trial": 41, "rt": 5564, "response": "Beta"}, "1": {"stimulus": 18, "trial": 1, "rt": 1260, "response": "Beta"}, "0": {"stimulus": 21, "trial": 0, "rt": 18907, "response": "Alpha"}, "3": {"stimulus": 31, "trial": 3, "rt": 5204, "response": "Alpha"}, "2": {"stimulus": 19, "trial": 2, "rt": 1036, "response": "Beta"}, "5": {"stimulus": 64, "trial": 5, "rt": 2724, "response": "Beta"}, "4": {"stimulus": 32, "trial": 4, "rt": 4235, "response": "Alpha"}, "7": {"stimulus": 11, "trial": 7, "rt": 5556, "response": "Beta"}, "6": {"stimulus": 67, "trial": 6, "rt": 1228, "response": "Beta"}, "9": {"stimulus": 58, "trial": 9, "rt": 5132, "response": "Beta"}, "8": {"stimulus": 20, "trial": 8, "rt": 923, "response": "Beta"}, "78": {"stimulus": 28, "trial": 78, "rt": 732, "response": "Alpha"}, "51": {"stimulus": 25, "trial": 51, "rt": 780, "response": "Alpha"}, "39": {"stimulus": 66, "trial": 39, "rt": 836, "response": "Beta"}, "65": {"stimulus": 59, "trial": 65, "rt": 9403, "response": "Beta"}, "76": {"stimulus": 77, "trial": 76, "rt": 1435, "response": "Beta"}, "75": {"stimulus": 0, "trial": 75, "rt": 1132, "response": "Beta"}, "38": {"stimulus": 71, "trial": 38, "rt": 780, "response": "Beta"}, "73": {"stimulus": 46, "trial": 73, "rt": 772, "response": "Alpha"}, "72": {"stimulus": 36, "trial": 72, "rt": 884, "response": "Alpha"}, "71": {"stimulus": 76, "trial": 71, "rt": 620, "response": "Beta"}, "70": {"stimulus": 69, "trial": 70, "rt": 860, "response": "Beta"}, "59": {"stimulus": 78, "trial": 59, "rt": 1020, "response": "Beta"}, "79": {"stimulus": 12, "trial": 79, "rt": 1100, "response": "Beta"}, "58": {"stimulus": 30, "trial": 58, "rt": 620, "response": "Alpha"}, "11": {"stimulus": 13, "trial": 11, "rt": 1011, "response": "Beta"}, "10": {"stimulus": 14, "trial": 10, "rt": 5713, "response": "Beta"}, "13": {"stimulus": 16, "trial": 13, "rt": 2995, "response": "Beta"}, "12": {"stimulus": 48, "trial": 12, "rt": 4740, "response": "Beta"}, "15": {"stimulus": 27, "trial": 15, "rt": 2204, "response": "Alpha"}, "14": {"stimulus": 23, "trial": 14, "rt": 1068, "response": "Alpha"}, "17": {"stimulus": 52, "trial": 17, "rt": 5580, "response": "Alpha"}, "16": {"stimulus": 1, "trial": 16, "rt": 1428, "response": "Beta"}, "19": {"stimulus": 17, "trial": 19, "rt": 2020, "response": "Beta"}, "18": {"stimulus": 53, "trial": 18, "rt": 612, "response": "Alpha"}, "31": {"stimulus": 8, "trial": 31, "rt": 1164, "response": "Beta"}, "30": {"stimulus": 45, "trial": 30, "rt": 4963, "response": "Alpha"}, "37": {"stimulus": 74, "trial": 37, "rt": 1044, "response": "Beta"}, "36": {"stimulus": 10, "trial": 36, "rt": 1740, "response": "Alpha"}, "35": {"stimulus": 68, "trial": 35, "rt": 1220, "response": "Beta"}, "34": {"stimulus": 3, "trial": 34, "rt": 1124, "response": "Beta"}, "33": {"stimulus": 75, "trial": 33, "rt": 1155, "response": "Beta"}, "55": {"stimulus": 6, "trial": 55, "rt": 3228, "response": "Beta"}, "74": {"stimulus": 33, "trial": 74, "rt": 868, "response": "Alpha"}, "32": {"stimulus": 41, "trial": 32, "rt": 1448, "response": "Alpha"}, "57": {"stimulus": 35, "trial": 57, "rt": 939, "response": "Alpha"}, "50": {"stimulus": 51, "trial": 50, "rt": 980, "response": "Alpha"}}}