{"generation": {"1": {"stimulus": 80, "trial": 1, "rt": 4139}, "0": {"stimulus": 72, "trial": 0, "rt": 5708}, "3": {"stimulus": 8, "trial": 3, "rt": 2651}, "2": {"stimulus": 0, "trial": 2, "rt": 2774}}, "info": {"participant": 98, "exposed": true, "lab": false, "start": 1482181433155, "counterbalance": 7, "condition": "Middle", "browser": {"platform": "Win32", "userAgent": "Mozilla/5.0 (Windows NT 6.1; WOW64) AppleWebKit/537.36 (KHTML, like Gecko) Chrome/55.0.2883.87 Safari/537.36"}}, "experiment": {"Paradigm": "TACL", "Stimuli": "Size-Color Squares", "Experiment": "Generating-Categories"}, "observation": {"11": {"stimulus": 30, "trial": 11, "rt": 873}, "10": {"stimulus": 50, "trial": 10, "rt": 817}, "1": {"stimulus": 48, "trial": 1, "rt": 1082}, "0": {"stimulus": 30, "trial": 0, "rt": 1416}, "3": {"stimulus": 50, "trial": 3, "rt": 952}, "2": {"stimulus": 32, "trial": 2, "rt": 1054}, "5": {"stimulus": 30, "trial": 5, "rt": 232067}, "4": {"stimulus": 50, "trial": 4, "rt": 927}, "7": {"stimulus": 48, "trial": 7, "rt": 63556}, "6": {"stimulus": 32, "trial": 6, "rt": 3376}, "9": {"stimulus": 48, "trial": 9, "rt": 857}, "8": {"stimulus": 32, "trial": 8, "rt": 854}}, "generalization": {"56": {"stimulus": 75, "trial": 56, "rt": 802, "response": "Alpha"}, "77": {"stimulus": 10, "trial": 77, "rt": 459, "response": "Beta"}, "54": {"stimulus": 36, "trial": 54, "rt": 445, "response": "Beta"}, "42": {"stimulus": 72, "trial": 42, "rt": 658, "response": "Beta"}, "48": {"stimulus": 1, "trial": 48, "rt": 587, "response": "Alpha"}, "43": {"stimulus": 27, "trial": 43, "rt": 415, "response": "Beta"}, "60": {"stimulus": 78, "trial": 60, "rt": 723, "response": "Beta"}, "61": {"stimulus": 31, "trial": 61, "rt": 481, "response": "Beta"}, "62": {"stimulus": 12, "trial": 62, "rt": 458, "response": "Alpha"}, "63": {"stimulus": 59, "trial": 63, "rt": 576, "response": "Alpha"}, "64": {"stimulus": 49, "trial": 64, "rt": 528, "response": "Alpha"}, "49": {"stimulus": 6, "trial": 49, "rt": 467, "response": "Beta"}, "66": {"stimulus": 47, "trial": 66, "rt": 576, "response": "Alpha"}, "67": {"stimulus": 46, "trial": 67, "rt": 463, "response": "Alpha"}, "68": {"stimulus": 22, "trial": 68, "rt": 447, "response": "Beta"}, "69": {"stimulus": 18, "trial": 69, "rt": 736, "response": "Beta"}, "80": {"stimulus": 13, "trial": 80, "rt": 725, "response": "Alpha"}, "52": {"stimulus": 14, "trial": 52, "rt": 802, "response": "Alpha"}, "53": {"stimulus": 4, "trial": 53, "rt": 518, "response": "Alpha"}, "24": {"stimulus": 26, "trial": 24, "rt": 765, "response": "Beta"}, "25": {"stimulus": 23, "trial": 25, "rt": 738, "response": "Alpha"}, "26": {"stimulus": 50, "trial": 26, "rt": 534, "response": "Alpha"}, "27": {"stimulus": 20, "trial": 27, "rt": 648, "response": "Alpha"}, "20": {"stimulus": 61, "trial": 20, "rt": 639, "response": "Beta"}, "21": {"stimulus": 8, "trial": 21, "rt": 506, "response": "Beta"}, "22": {"stimulus": 45, "trial": 22, "rt": 591, "response": "Alpha"}, "23": {"stimulus": 55, "trial": 23, "rt": 785, "response": "Beta"}, "46": {"stimulus": 17, "trial": 46, "rt": 684, "response": "Beta"}, "47": {"stimulus": 7, "trial": 47, "rt": 403, "response": "Beta"}, "44": {"stimulus": 28, "trial": 44, "rt": 422, "response": "Beta"}, "45": {"stimulus": 74, "trial": 45, "rt": 466, "response": "Beta"}, "28": {"stimulus": 16, "trial": 28, "rt": 522, "response": "Beta"}, "29": {"stimulus": 56, "trial": 29, "rt": 725, "response": "Alpha"}, "40": {"stimulus": 39, "trial": 40, "rt": 602, "response": "Alpha"}, "41": {"stimulus": 67, "trial": 41, "rt": 660, "response": "Alpha"}, "1": {"stimulus": 57, "trial": 1, "rt": 746, "response": "Alpha"}, "0": {"stimulus": 53, "trial": 0, "rt": 1706, "response": "Beta"}, "3": {"stimulus": 68, "trial": 3, "rt": 693, "response": "Alpha"}, "2": {"stimulus": 40, "trial": 2, "rt": 894, "response": "Alpha"}, "5": {"stimulus": 71, "trial": 5, "rt": 624, "response": "Beta"}, "4": {"stimulus": 21, "trial": 4, "rt": 658, "response": "Alpha"}, "7": {"stimulus": 51, "trial": 7, "rt": 678, "response": "Beta"}, "6": {"stimulus": 66, "trial": 6, "rt": 1045, "response": "Alpha"}, "9": {"stimulus": 44, "trial": 9, "rt": 831, "response": "Beta"}, "8": {"stimulus": 33, "trial": 8, "rt": 599, "response": "Alpha"}, "78": {"stimulus": 11, "trial": 78, "rt": 460, "response": "Beta"}, "51": {"stimulus": 58, "trial": 51, "rt": 809, "response": "Alpha"}, "39": {"stimulus": 48, "trial": 39, "rt": 664, "response": "Alpha"}, "65": {"stimulus": 25, "trial": 65, "rt": 614, "response": "Beta"}, "76": {"stimulus": 9, "trial": 76, "rt": 685, "response": "Beta"}, "75": {"stimulus": 64, "trial": 75, "rt": 645, "response": "Alpha"}, "38": {"stimulus": 80, "trial": 38, "rt": 567, "response": "Beta"}, "73": {"stimulus": 35, "trial": 73, "rt": 454, "response": "Beta"}, "72": {"stimulus": 43, "trial": 72, "rt": 671, "response": "Beta"}, "71": {"stimulus": 77, "trial": 71, "rt": 483, "response": "Alpha"}, "70": {"stimulus": 5, "trial": 70, "rt": 1107, "response": "Alpha"}, "59": {"stimulus": 73, "trial": 59, "rt": 561, "response": "Beta"}, "79": {"stimulus": 60, "trial": 79, "rt": 644, "response": "Beta"}, "58": {"stimulus": 32, "trial": 58, "rt": 443, "response": "Beta"}, "11": {"stimulus": 30, "trial": 11, "rt": 717, "response": "Alpha"}, "10": {"stimulus": 24, "trial": 10, "rt": 690, "response": "Beta"}, "13": {"stimulus": 62, "trial": 13, "rt": 628, "response": "Beta"}, "12": {"stimulus": 29, "trial": 12, "rt": 549, "response": "Alpha"}, "15": {"stimulus": 54, "trial": 15, "rt": 865, "response": "Beta"}, "14": {"stimulus": 76, "trial": 14, "rt": 650, "response": "Alpha"}, "17": {"stimulus": 65, "trial": 17, "rt": 626, "response": "Alpha"}, "16": {"stimulus": 63, "trial": 16, "rt": 491, "response": "Beta"}, "19": {"stimulus": 70, "trial": 19, "rt": 757, "response": "Beta"}, "18": {"stimulus": 41, "trial": 18, "rt": 661, "response": "Alpha"}, "31": {"stimulus": 15, "trial": 31, "rt": 459, "response": "Beta"}, "30": {"stimulus": 42, "trial": 30, "rt": 545, "response": "Beta"}, "37": {"stimulus": 0, "trial": 37, "rt": 592, "response": "Alpha"}, "36": {"stimulus": 52, "trial": 36, "rt": 617, "response": "Beta"}, "35": {"stimulus": 37, "trial": 35, "rt": 549, "response": "Alpha"}, "34": {"stimulus": 79, "trial": 34, "rt": 493, "response": "Beta"}, "33": {"stimulus": 2, "trial": 33, "rt": 589, "response": "Alpha"}, "55": {"stimulus": 38, "trial": 55, "rt": 637, "response": "Beta"}, "74": {"stimulus": 19, "trial": 74, "rt": 559, "response": "Alpha"}, "32": {"stimulus": 34, "trial": 32, "rt": 540, "response": "Beta"}, "57": {"stimulus": 3, "trial": 57, "rt": 496, "response": "Alpha"}, "50": {"stimulus": 69, "trial": 50, "rt": 490, "response": "Beta"}}}90, "response": "Beta"}}}