{"generation": {"1": {"stimulus": 67, "trial": 1, "rt": 23353}, "0": {"stimulus": 76, "trial": 0, "rt": 16728}, "3": {"stimulus": 80, "trial": 3, "rt": 6521}, "2": {"stimulus": 78, "trial": 2, "rt": 5315}}, "info": {"finish": 1482181798143, "participant": 99, "exposed": true, "lab": false, "start": 1482181442081, "counterbalance": 2, "condition": "Bottom", "browser": {"platform": "Win32", "userAgent": "Mozilla/5.0 (Windows NT 10.0; Win64; x64) AppleWebKit/537.36 (KHTML, like Gecko) Chrome/55.0.2883.87 Safari/537.36"}}, "experiment": {"Paradigm": "TACL", "Stimuli": "Size-Color Squares", "Experiment": "Generating-Categories"}, "observation": {"11": {"stimulus": 30, "trial": 11, "rt": 1805}, "10": {"stimulus": 14, "trial": 10, "rt": 2281}, "1": {"stimulus": 14, "trial": 1, "rt": 4123}, "0": {"stimulus": 12, "trial": 0, "rt": 9882}, "3": {"stimulus": 30, "trial": 3, "rt": 3108}, "2": {"stimulus": 32, "trial": 2, "rt": 2584}, "5": {"stimulus": 30, "trial": 5, "rt": 3698}, "4": {"stimulus": 12, "trial": 4, "rt": 2160}, "7": {"stimulus": 32, "trial": 7, "rt": 2320}, "6": {"stimulus": 14, "trial": 6, "rt": 2168}, "9": {"stimulus": 32, "trial": 9, "rt": 2017}, "8": {"stimulus": 12, "trial": 8, "rt": 1989}}, "generalization": {"56": {"stimulus": 34, "trial": 56, "rt": 1646, "response": "Alpha"}, "77": {"stimulus": 11, "trial": 77, "rt": 1627, "response": "Alpha"}, "54": {"stimulus": 64, "trial": 54, "rt": 1968, "response": "Beta"}, "42": {"stimulus": 38, "trial": 42, "rt": 2084, "response": "Alpha"}, "48": {"stimulus": 29, "trial": 48, "rt": 1998, "response": "Alpha"}, "43": {"stimulus": 36, "trial": 43, "rt": 2331, "response": "Alpha"}, "60": {"stimulus": 44, "trial": 60, "rt": 1999, "response": "Alpha"}, "61": {"stimulus": 33, "trial": 61, "rt": 1879, "response": "Alpha"}, "62": {"stimulus": 39, "trial": 62, "rt": 2059, "response": "Alpha"}, "63": {"stimulus": 10, "trial": 63, "rt": 2091, "response": "Alpha"}, "64": {"stimulus": 74, "trial": 64, "rt": 1779, "response": "Beta"}, "49": {"stimulus": 62, "trial": 49, "rt": 2960, "response": "Alpha"}, "66": {"stimulus": 63, "trial": 66, "rt": 2040, "response": "Beta"}, "67": {"stimulus": 57, "trial": 67, "rt": 1812, "response": "Beta"}, "68": {"stimulus": 49, "trial": 68, "rt": 1717, "response": "Alpha"}, "69": {"stimulus": 12, "trial": 69, "rt": 1928, "response": "Alpha"}, "80": {"stimulus": 72, "trial": 80, "rt": 1449, "response": "Beta"}, "52": {"stimulus": 60, "trial": 52, "rt": 2191, "response": "Alpha"}, "53": {"stimulus": 18, "trial": 53, "rt": 1916, "response": "Alpha"}, "24": {"stimulus": 45, "trial": 24, "rt": 2929, "response": "Alpha"}, "25": {"stimulus": 79, "trial": 25, "rt": 1865, "response": "Beta"}, "26": {"stimulus": 75, "trial": 26, "rt": 1978, "response": "Beta"}, "27": {"stimulus": 53, "trial": 27, "rt": 1844, "response": "Alpha"}, "20": {"stimulus": 41, "trial": 20, "rt": 2309, "response": "Alpha"}, "21": {"stimulus": 43, "trial": 21, "rt": 2050, "response": "Alpha"}, "22": {"stimulus": 6, "trial": 22, "rt": 1958, "response": "Alpha"}, "23": {"stimulus": 25, "trial": 23, "rt": 1923, "response": "Alpha"}, "46": {"stimulus": 1, "trial": 46, "rt": 1771, "response": "Alpha"}, "47": {"stimulus": 48, "trial": 47, "rt": 2059, "response": "Alpha"}, "44": {"stimulus": 51, "trial": 44, "rt": 2489, "response": "Alpha"}, "45": {"stimulus": 2, "trial": 45, "rt": 1955, "response": "Alpha"}, "28": {"stimulus": 59, "trial": 28, "rt": 2273, "response": "Alpha"}, "29": {"stimulus": 5, "trial": 29, "rt": 2066, "response": "Alpha"}, "40": {"stimulus": 8, "trial": 40, "rt": 2148, "response": "Alpha"}, "41": {"stimulus": 30, "trial": 41, "rt": 2366, "response": "Alpha"}, "1": {"stimulus": 7, "trial": 1, "rt": 2445, "response": "Alpha"}, "0": {"stimulus": 54, "trial": 0, "rt": 2723, "response": "Alpha"}, "3": {"stimulus": 55, "trial": 3, "rt": 2984, "response": "Alpha"}, "2": {"stimulus": 26, "trial": 2, "rt": 2137, "response": "Alpha"}, "5": {"stimulus": 24, "trial": 5, "rt": 2159, "response": "Alpha"}, "4": {"stimulus": 80, "trial": 4, "rt": 1780, "response": "Beta"}, "7": {"stimulus": 77, "trial": 7, "rt": 1510, "response": "Beta"}, "6": {"stimulus": 19, "trial": 6, "rt": 1800, "response": "Alpha"}, "9": {"stimulus": 73, "trial": 9, "rt": 1959, "response": "Beta"}, "8": {"stimulus": 31, "trial": 8, "rt": 1943, "response": "Alpha"}, "78": {"stimulus": 56, "trial": 78, "rt": 2012, "response": "Alpha"}, "51": {"stimulus": 17, "trial": 51, "rt": 1944, "response": "Alpha"}, "39": {"stimulus": 32, "trial": 39, "rt": 2078, "response": "Alpha"}, "65": {"stimulus": 0, "trial": 65, "rt": 1550, "response": "Alpha"}, "76": {"stimulus": 37, "trial": 76, "rt": 1888, "response": "Alpha"}, "75": {"stimulus": 42, "trial": 75, "rt": 1664, "response": "Alpha"}, "38": {"stimulus": 14, "trial": 38, "rt": 2037, "response": "Alpha"}, "73": {"stimulus": 78, "trial": 73, "rt": 2207, "response": "Beta"}, "72": {"stimulus": 69, "trial": 72, "rt": 1830, "response": "Beta"}, "71": {"stimulus": 58, "trial": 71, "rt": 2434, "response": "Alpha"}, "70": {"stimulus": 52, "trial": 70, "rt": 2081, "response": "Alpha"}, "59": {"stimulus": 3, "trial": 59, "rt": 1972, "response": "Alpha"}, "79": {"stimulus": 15, "trial": 79, "rt": 1655, "response": "Alpha"}, "58": {"stimulus": 46, "trial": 58, "rt": 2190, "response": "Alpha"}, "11": {"stimulus": 40, "trial": 11, "rt": 2342, "response": "Alpha"}, "10": {"stimulus": 50, "trial": 10, "rt": 2028, "response": "Alpha"}, "13": {"stimulus": 16, "trial": 13, "rt": 1927, "response": "Alpha"}, "12": {"stimulus": 71, "trial": 12, "rt": 3362, "response": "Beta"}, "15": {"stimulus": 22, "trial": 15, "rt": 2309, "response": "Alpha"}, "14": {"stimulus": 76, "trial": 14, "rt": 1805, "response": "Beta"}, "17": {"stimulus": 27, "trial": 17, "rt": 1994, "response": "Alpha"}, "16": {"stimulus": 68, "trial": 16, "rt": 3819, "response": "Beta"}, "19": {"stimulus": 4, "trial": 19, "rt": 1593, "response": "Alpha"}, "18": {"stimulus": 66, "trial": 18, "rt": 2875, "response": "Beta"}, "31": {"stimulus": 65, "trial": 31, "rt": 1983, "response": "Beta"}, "30": {"stimulus": 21, "trial": 30, "rt": 2050, "response": "Alpha"}, "37": {"stimulus": 9, "trial": 37, "rt": 2488, "response": "Alpha"}, "36": {"stimulus": 61, "trial": 36, "rt": 2489, "response": "Alpha"}, "35": {"stimulus": 20, "trial": 35, "rt": 1832, "response": "Alpha"}, "34": {"stimulus": 70, "trial": 34, "rt": 1983, "response": "Beta"}, "33": {"stimulus": 23, "trial": 33, "rt": 1836, "response": "Alpha"}, "55": {"stimulus": 13, "trial": 55, "rt": 1559, "response": "Alpha"}, "74": {"stimulus": 67, "trial": 74, "rt": 2115, "response": "Beta"}, "32": {"stimulus": 35, "trial": 32, "rt": 1697, "response": "Alpha"}, "57": {"stimulus": 47, "trial": 57, "rt": 1983, "response": "Alpha"}, "50": {"stimulus": 28, "trial": 50, "rt": 2001, "response": "Alpha"}}}