{"info": {"finish": 1554493469357, "participant": 10, "exposed": true, "lab": false, "start": 1554493229005, "counterbalance": 2, "stimtype": "Circles", "gentype": 1, "condition": "Corner_C", "browser": {"platform": "Win32", "userAgent": "Mozilla/5.0 (Windows NT 6.1; Win64; x64) AppleWebKit/537.36 (KHTML, like Gecko) Chrome/73.0.3683.86 Safari/537.36"}}, "observation": {"11": {"stimulus": 80, "trial": 11, "rt": 1525}, "10": {"stimulus": 8, "trial": 10, "rt": 1545}, "1": {"stimulus": 72, "trial": 1, "rt": 1824}, "0": {"stimulus": 80, "trial": 0, "rt": 3216}, "3": {"stimulus": 8, "trial": 3, "rt": 1908}, "2": {"stimulus": 0, "trial": 2, "rt": 2292}, "5": {"stimulus": 72, "trial": 5, "rt": 1724}, "4": {"stimulus": 0, "trial": 4, "rt": 1475}, "7": {"stimulus": 80, "trial": 7, "rt": 1639}, "6": {"stimulus": 8, "trial": 6, "rt": 1707}, "9": {"stimulus": 0, "trial": 9, "rt": 1587}, "8": {"stimulus": 72, "trial": 8, "rt": 1460}}, "generation": {"1": {"category": "Beta", "trial": 1, "stimulus": 69, "rt": 9686}, "0": {"category": "Beta", "trial": 0, "stimulus": 57, "rt": 9743}, "3": {"category": "Beta", "trial": 3, "stimulus": 65, "rt": 5359}, "2": {"category": "Beta", "trial": 2, "stimulus": 56, "rt": 5294}}, "generalization": {"56": {"stimulus": 0, "trial": 56, "rt": 1102, "response": "Alpha"}, "77": {"stimulus": 64, "trial": 77, "rt": 513, "response": "Beta"}, "54": {"stimulus": 72, "trial": 54, "rt": 511, "response": "Alpha"}, "42": {"stimulus": 8, "trial": 42, "rt": 789, "response": "Alpha"}, "48": {"stimulus": 44, "trial": 48, "rt": 500, "response": "Beta"}, "43": {"stimulus": 9, "trial": 43, "rt": 844, "response": "Beta"}, "60": {"stimulus": 77, "trial": 60, "rt": 882, "response": "Alpha"}, "61": {"stimulus": 51, "trial": 61, "rt": 883, "response": "Beta"}, "62": {"stimulus": 22, "trial": 62, "rt": 1076, "response": "Beta"}, "63": {"stimulus": 52, "trial": 63, "rt": 481, "response": "Beta"}, "64": {"stimulus": 59, "trial": 64, "rt": 496, "response": "Beta"}, "49": {"stimulus": 38, "trial": 49, "rt": 493, "response": "Beta"}, "66": {"stimulus": 56, "trial": 66, "rt": 460, "response": "Beta"}, "67": {"stimulus": 0, "trial": 67, "rt": 796, "response": "Alpha"}, "68": {"stimulus": 19, "trial": 68, "rt": 636, "response": "Beta"}, "69": {"stimulus": 70, "trial": 69, "rt": 625, "response": "Beta"}, "80": {"stimulus": 24, "trial": 80, "rt": 541, "response": "Beta"}, "52": {"stimulus": 37, "trial": 52, "rt": 498, "response": "Beta"}, "53": {"stimulus": 6, "trial": 53, "rt": 829, "response": "Alpha"}, "24": {"stimulus": 47, "trial": 24, "rt": 550, "response": "Beta"}, "25": {"stimulus": 25, "trial": 25, "rt": 1004, "response": "Beta"}, "26": {"stimulus": 28, "trial": 26, "rt": 664, "response": "Beta"}, "27": {"stimulus": 29, "trial": 27, "rt": 479, "response": "Beta"}, "20": {"stimulus": 41, "trial": 20, "rt": 642, "response": "Beta"}, "21": {"stimulus": 80, "trial": 21, "rt": 844, "response": "Alpha"}, "22": {"stimulus": 14, "trial": 22, "rt": 799, "response": "Beta"}, "23": {"stimulus": 21, "trial": 23, "rt": 1189, "response": "Beta"}, "46": {"stimulus": 20, "trial": 46, "rt": 831, "response": "Beta"}, "47": {"stimulus": 16, "trial": 47, "rt": 527, "response": "Beta"}, "44": {"stimulus": 12, "trial": 44, "rt": 605, "response": "Beta"}, "45": {"stimulus": 61, "trial": 45, "rt": 576, "response": "Beta"}, "28": {"stimulus": 66, "trial": 28, "rt": 677, "response": "Beta"}, "29": {"stimulus": 60, "trial": 29, "rt": 443, "response": "Beta"}, "40": {"stimulus": 2, "trial": 40, "rt": 788, "response": "Alpha"}, "41": {"stimulus": 33, "trial": 41, "rt": 706, "response": "Beta"}, "1": {"stimulus": 31, "trial": 1, "rt": 1155, "response": "Beta"}, "0": {"stimulus": 43, "trial": 0, "rt": 2225, "response": "Beta"}, "3": {"stimulus": 46, "trial": 3, "rt": 789, "response": "Beta"}, "2": {"stimulus": 73, "trial": 2, "rt": 818, "response": "Alpha"}, "5": {"stimulus": 34, "trial": 5, "rt": 579, "response": "Beta"}, "4": {"stimulus": 49, "trial": 4, "rt": 620, "response": "Beta"}, "7": {"stimulus": 32, "trial": 7, "rt": 658, "response": "Beta"}, "6": {"stimulus": 15, "trial": 6, "rt": 732, "response": "Beta"}, "9": {"stimulus": 1, "trial": 9, "rt": 803, "response": "Alpha"}, "8": {"stimulus": 54, "trial": 8, "rt": 724, "response": "Beta"}, "78": {"stimulus": 76, "trial": 78, "rt": 775, "response": "Alpha"}, "51": {"stimulus": 58, "trial": 51, "rt": 577, "response": "Beta"}, "39": {"stimulus": 65, "trial": 39, "rt": 731, "response": "Beta"}, "65": {"stimulus": 62, "trial": 65, "rt": 457, "response": "Beta"}, "76": {"stimulus": 55, "trial": 76, "rt": 668, "response": "Beta"}, "75": {"stimulus": 79, "trial": 75, "rt": 856, "response": "Alpha"}, "38": {"stimulus": 42, "trial": 38, "rt": 483, "response": "Beta"}, "73": {"stimulus": 4, "trial": 73, "rt": 485, "response": "Alpha"}, "72": {"stimulus": 5, "trial": 72, "rt": 885, "response": "Alpha"}, "71": {"stimulus": 23, "trial": 71, "rt": 545, "response": "Beta"}, "70": {"stimulus": 27, "trial": 70, "rt": 508, "response": "Beta"}, "59": {"stimulus": 17, "trial": 59, "rt": 716, "response": "Beta"}, "79": {"stimulus": 30, "trial": 79, "rt": 588, "response": "Beta"}, "58": {"stimulus": 13, "trial": 58, "rt": 709, "response": "Beta"}, "11": {"stimulus": 18, "trial": 11, "rt": 901, "response": "Beta"}, "10": {"stimulus": 40, "trial": 10, "rt": 707, "response": "Beta"}, "13": {"stimulus": 35, "trial": 13, "rt": 710, "response": "Beta"}, "12": {"stimulus": 7, "trial": 12, "rt": 723, "response": "Alpha"}, "15": {"stimulus": 26, "trial": 15, "rt": 726, "response": "Beta"}, "14": {"stimulus": 53, "trial": 14, "rt": 570, "response": "Beta"}, "17": {"stimulus": 57, "trial": 17, "rt": 637, "response": "Beta"}, "16": {"stimulus": 50, "trial": 16, "rt": 636, "response": "Beta"}, "19": {"stimulus": 74, "trial": 19, "rt": 920, "response": "Alpha"}, "18": {"stimulus": 71, "trial": 18, "rt": 546, "response": "Beta"}, "31": {"stimulus": 67, "trial": 31, "rt": 709, "response": "Beta"}, "30": {"stimulus": 10, "trial": 30, "rt": 1252, "response": "Beta"}, "37": {"stimulus": 68, "trial": 37, "rt": 450, "response": "Beta"}, "36": {"stimulus": 75, "trial": 36, "rt": 746, "response": "Alpha"}, "35": {"stimulus": 45, "trial": 35, "rt": 473, "response": "Beta"}, "34": {"stimulus": 69, "trial": 34, "rt": 729, "response": "Beta"}, "33": {"stimulus": 3, "trial": 33, "rt": 832, "response": "Alpha"}, "55": {"stimulus": 63, "trial": 55, "rt": 787, "response": "Beta"}, "74": {"stimulus": 48, "trial": 74, "rt": 733, "response": "Beta"}, "32": {"stimulus": 11, "trial": 32, "rt": 771, "response": "Beta"}, "57": {"stimulus": 78, "trial": 57, "rt": 603, "response": "Alpha"}, "50": {"stimulus": 36, "trial": 50, "rt": 509, "response": "Beta"}}, "experiment": {"Paradigm": "TACL", "Stimuli": "Size-Color Squares and Size-Orientation Circles", "Experiment": "Generating-Multiple-Categories"}, "submit": {"timeTotal": 240631, "age": "34", "comments": "", "sex": "male"}}