{"info": {"finish": 1554536199397, "participant": 100, "exposed": true, "lab": false, "start": 1554534705694, "counterbalance": 2, "stimtype": "Squares", "gentype": 1, "condition": "Corner_S", "browser": {"platform": "Win32", "userAgent": "Mozilla/5.0 (Windows NT 10.0; Win64; x64) AppleWebKit/537.36 (KHTML, like Gecko) Chrome/73.0.3683.86 Safari/537.36"}}, "observation": {"11": {"stimulus": 72, "trial": 11, "rt": 6169}, "10": {"stimulus": 0, "trial": 10, "rt": 1567}, "1": {"stimulus": 8, "trial": 1, "rt": 9317}, "0": {"stimulus": 72, "trial": 0, "rt": 11800}, "3": {"stimulus": 0, "trial": 3, "rt": 2958}, "2": {"stimulus": 80, "trial": 2, "rt": 2295}, "5": {"stimulus": 0, "trial": 5, "rt": 2151}, "4": {"stimulus": 72, "trial": 4, "rt": 2262}, "7": {"stimulus": 80, "trial": 7, "rt": 1111371}, "6": {"stimulus": 8, "trial": 6, "rt": 2312}, "9": {"stimulus": 80, "trial": 9, "rt": 1725}, "8": {"stimulus": 8, "trial": 8, "rt": 1799}}, "generation": {"1": {"category": "Beta", "trial": 1, "stimulus": 80, "rt": 20036}, "0": {"category": "Beta", "trial": 0, "stimulus": 71, "rt": 19218}, "3": {"category": "Beta", "trial": 3, "stimulus": 60, "rt": 5380}, "2": {"category": "Beta", "trial": 2, "stimulus": 42, "rt": 15482}}, "generalization": {"56": {"stimulus": 14, "trial": 56, "rt": 1086, "response": "Alpha"}, "77": {"stimulus": 49, "trial": 77, "rt": 925, "response": "Beta"}, "54": {"stimulus": 35, "trial": 54, "rt": 1830, "response": "Alpha"}, "42": {"stimulus": 20, "trial": 42, "rt": 572, "response": "Beta"}, "48": {"stimulus": 42, "trial": 48, "rt": 1374, "response": "Beta"}, "43": {"stimulus": 6, "trial": 43, "rt": 1031, "response": "Alpha"}, "60": {"stimulus": 26, "trial": 60, "rt": 1870, "response": "Beta"}, "61": {"stimulus": 16, "trial": 61, "rt": 766, "response": "Alpha"}, "62": {"stimulus": 79, "trial": 62, "rt": 942, "response": "Beta"}, "63": {"stimulus": 33, "trial": 63, "rt": 1038, "response": "Alpha"}, "64": {"stimulus": 59, "trial": 64, "rt": 895, "response": "Beta"}, "49": {"stimulus": 61, "trial": 49, "rt": 2094, "response": "Beta"}, "66": {"stimulus": 22, "trial": 66, "rt": 933, "response": "Alpha"}, "67": {"stimulus": 68, "trial": 67, "rt": 781, "response": "Alpha"}, "68": {"stimulus": 47, "trial": 68, "rt": 808, "response": "Alpha"}, "69": {"stimulus": 10, "trial": 69, "rt": 8220, "response": "Alpha"}, "80": {"stimulus": 1, "trial": 80, "rt": 685, "response": "Alpha"}, "52": {"stimulus": 3, "trial": 52, "rt": 932, "response": "Alpha"}, "53": {"stimulus": 44, "trial": 53, "rt": 1359, "response": "Beta"}, "24": {"stimulus": 51, "trial": 24, "rt": 791, "response": "Beta"}, "25": {"stimulus": 29, "trial": 25, "rt": 1404, "response": "Alpha"}, "26": {"stimulus": 31, "trial": 26, "rt": 1014, "response": "Beta"}, "27": {"stimulus": 36, "trial": 27, "rt": 783, "response": "Alpha"}, "20": {"stimulus": 25, "trial": 20, "rt": 1349, "response": "Beta"}, "21": {"stimulus": 46, "trial": 21, "rt": 1646, "response": "Alpha"}, "22": {"stimulus": 54, "trial": 22, "rt": 718, "response": "Alpha"}, "23": {"stimulus": 9, "trial": 23, "rt": 678, "response": "Alpha"}, "46": {"stimulus": 43, "trial": 46, "rt": 1008, "response": "Beta"}, "47": {"stimulus": 75, "trial": 47, "rt": 1126, "response": "Alpha"}, "44": {"stimulus": 57, "trial": 44, "rt": 1006, "response": "Alpha"}, "45": {"stimulus": 4, "trial": 45, "rt": 930, "response": "Alpha"}, "28": {"stimulus": 15, "trial": 28, "rt": 1006, "response": "Beta"}, "29": {"stimulus": 73, "trial": 29, "rt": 821, "response": "Alpha"}, "40": {"stimulus": 8, "trial": 40, "rt": 958, "response": "Beta"}, "41": {"stimulus": 63, "trial": 41, "rt": 575, "response": "Alpha"}, "1": {"stimulus": 13, "trial": 1, "rt": 1789, "response": "Alpha"}, "0": {"stimulus": 24, "trial": 0, "rt": 3003, "response": "Beta"}, "3": {"stimulus": 32, "trial": 3, "rt": 1053, "response": "Beta"}, "2": {"stimulus": 23, "trial": 2, "rt": 686, "response": "Beta"}, "5": {"stimulus": 2, "trial": 5, "rt": 1173, "response": "Alpha"}, "4": {"stimulus": 76, "trial": 4, "rt": 1645, "response": "Beta"}, "7": {"stimulus": 55, "trial": 7, "rt": 1213, "response": "Alpha"}, "6": {"stimulus": 78, "trial": 6, "rt": 1773, "response": "Beta"}, "9": {"stimulus": 60, "trial": 9, "rt": 1822, "response": "Beta"}, "8": {"stimulus": 45, "trial": 8, "rt": 2837, "response": "Alpha"}, "78": {"stimulus": 19, "trial": 78, "rt": 666, "response": "Alpha"}, "51": {"stimulus": 21, "trial": 51, "rt": 975, "response": "Beta"}, "39": {"stimulus": 37, "trial": 39, "rt": 1764, "response": "Alpha"}, "65": {"stimulus": 28, "trial": 65, "rt": 516, "response": "Alpha"}, "76": {"stimulus": 65, "trial": 76, "rt": 964, "response": "Alpha"}, "75": {"stimulus": 71, "trial": 75, "rt": 1325, "response": "Beta"}, "38": {"stimulus": 62, "trial": 38, "rt": 520, "response": "Alpha"}, "73": {"stimulus": 67, "trial": 73, "rt": 780, "response": "Alpha"}, "72": {"stimulus": 70, "trial": 72, "rt": 1207, "response": "Beta"}, "71": {"stimulus": 64, "trial": 71, "rt": 26366, "response": "Alpha"}, "70": {"stimulus": 5, "trial": 70, "rt": 856, "response": "Alpha"}, "59": {"stimulus": 69, "trial": 59, "rt": 836, "response": "Beta"}, "79": {"stimulus": 58, "trial": 79, "rt": 1156, "response": "Beta"}, "58": {"stimulus": 50, "trial": 58, "rt": 926, "response": "Beta"}, "11": {"stimulus": 72, "trial": 11, "rt": 7902, "response": "Alpha"}, "10": {"stimulus": 34, "trial": 10, "rt": 638, "response": "Alpha"}, "13": {"stimulus": 40, "trial": 13, "rt": 2006, "response": "Alpha"}, "12": {"stimulus": 12, "trial": 12, "rt": 1228, "response": "Alpha"}, "15": {"stimulus": 66, "trial": 15, "rt": 887, "response": "Alpha"}, "14": {"stimulus": 74, "trial": 14, "rt": 1940, "response": "Alpha"}, "17": {"stimulus": 53, "trial": 17, "rt": 1500, "response": "Beta"}, "16": {"stimulus": 41, "trial": 16, "rt": 878, "response": "Beta"}, "19": {"stimulus": 0, "trial": 19, "rt": 934, "response": "Alpha"}, "18": {"stimulus": 11, "trial": 18, "rt": 1174, "response": "Alpha"}, "31": {"stimulus": 17, "trial": 31, "rt": 1570, "response": "Beta"}, "30": {"stimulus": 52, "trial": 30, "rt": 1008, "response": "Beta"}, "37": {"stimulus": 80, "trial": 37, "rt": 679, "response": "Beta"}, "36": {"stimulus": 7, "trial": 36, "rt": 1307, "response": "Alpha"}, "35": {"stimulus": 77, "trial": 35, "rt": 1616, "response": "Beta"}, "34": {"stimulus": 30, "trial": 34, "rt": 822, "response": "Alpha"}, "33": {"stimulus": 18, "trial": 33, "rt": 599, "response": "Alpha"}, "55": {"stimulus": 56, "trial": 55, "rt": 1030, "response": "Alpha"}, "74": {"stimulus": 38, "trial": 74, "rt": 1174, "response": "Alpha"}, "32": {"stimulus": 0, "trial": 32, "rt": 829, "response": "Alpha"}, "57": {"stimulus": 27, "trial": 57, "rt": 1926, "response": "Alpha"}, "50": {"stimulus": 48, "trial": 50, "rt": 855, "response": "Alpha"}}, "experiment": {"Paradigm": "TACL", "Stimuli": "Size-Color Squares and Size-Orientation Circles", "Experiment": "Generating-Multiple-Categories"}, "submit": {"timeTotal": 1496158, "age": "28", "comments": "its very interesting and fun", "sex": "male"}}