{"info": {"finish": 1554536838192, "participant": 101, "exposed": true, "lab": false, "start": 1554536495118, "counterbalance": 0, "stimtype": "Circles", "gentype": 1, "condition": "Corner_C", "browser": {"platform": "Win32", "userAgent": "Mozilla/5.0 (Windows NT 6.1) AppleWebKit/537.36 (KHTML, like Gecko) Chrome/75.0.3753.4 Safari/537.36"}}, "observation": {"11": {"stimulus": 0, "trial": 11, "rt": 1713}, "10": {"stimulus": 80, "trial": 10, "rt": 7144}, "1": {"stimulus": 8, "trial": 1, "rt": 6010}, "0": {"stimulus": 80, "trial": 0, "rt": 8847}, "3": {"stimulus": 0, "trial": 3, "rt": 2020}, "2": {"stimulus": 72, "trial": 2, "rt": 43349}, "5": {"stimulus": 8, "trial": 5, "rt": 3061}, "4": {"stimulus": 72, "trial": 4, "rt": 13191}, "7": {"stimulus": 0, "trial": 7, "rt": 1804}, "6": {"stimulus": 80, "trial": 6, "rt": 1764}, "9": {"stimulus": 72, "trial": 9, "rt": 4461}, "8": {"stimulus": 8, "trial": 8, "rt": 1837}}, "generation": {"1": {"category": "Beta", "trial": 1, "stimulus": 66, "rt": 10290}, "0": {"category": "Beta", "trial": 0, "stimulus": 69, "rt": 5260}, "3": {"category": "Beta", "trial": 3, "stimulus": 56, "rt": 5589}, "2": {"category": "Beta", "trial": 2, "stimulus": 33, "rt": 3038}}, "generalization": {"56": {"stimulus": 18, "trial": 56, "rt": 2119, "response": "Beta"}, "77": {"stimulus": 9, "trial": 77, "rt": 2238, "response": "Alpha"}, "54": {"stimulus": 23, "trial": 54, "rt": 595, "response": "Beta"}, "42": {"stimulus": 25, "trial": 42, "rt": 624, "response": "Beta"}, "48": {"stimulus": 15, "trial": 48, "rt": 1275, "response": "Beta"}, "43": {"stimulus": 65, "trial": 43, "rt": 836, "response": "Beta"}, "60": {"stimulus": 63, "trial": 60, "rt": 316, "response": "Beta"}, "61": {"stimulus": 8, "trial": 61, "rt": 901, "response": "Beta"}, "62": {"stimulus": 75, "trial": 62, "rt": 737, "response": "Beta"}, "63": {"stimulus": 28, "trial": 63, "rt": 1537, "response": "Beta"}, "64": {"stimulus": 49, "trial": 64, "rt": 426, "response": "Beta"}, "49": {"stimulus": 17, "trial": 49, "rt": 657, "response": "Beta"}, "66": {"stimulus": 31, "trial": 66, "rt": 365, "response": "Beta"}, "67": {"stimulus": 70, "trial": 67, "rt": 441, "response": "Beta"}, "68": {"stimulus": 73, "trial": 68, "rt": 302, "response": "Beta"}, "69": {"stimulus": 1, "trial": 69, "rt": 361, "response": "Beta"}, "80": {"stimulus": 13, "trial": 80, "rt": 390, "response": "Beta"}, "52": {"stimulus": 11, "trial": 52, "rt": 2297, "response": "Beta"}, "53": {"stimulus": 20, "trial": 53, "rt": 2116, "response": "Beta"}, "24": {"stimulus": 10, "trial": 24, "rt": 472, "response": "Beta"}, "25": {"stimulus": 47, "trial": 25, "rt": 1155, "response": "Beta"}, "26": {"stimulus": 0, "trial": 26, "rt": 775, "response": "Beta"}, "27": {"stimulus": 74, "trial": 27, "rt": 750, "response": "Beta"}, "20": {"stimulus": 34, "trial": 20, "rt": 1374, "response": "Alpha"}, "21": {"stimulus": 42, "trial": 21, "rt": 140, "response": "Alpha"}, "22": {"stimulus": 0, "trial": 22, "rt": 4713, "response": "Beta"}, "23": {"stimulus": 37, "trial": 23, "rt": 1554, "response": "Beta"}, "46": {"stimulus": 64, "trial": 46, "rt": 353, "response": "Beta"}, "47": {"stimulus": 30, "trial": 47, "rt": 876, "response": "Beta"}, "44": {"stimulus": 51, "trial": 44, "rt": 393, "response": "Beta"}, "45": {"stimulus": 46, "trial": 45, "rt": 554, "response": "Beta"}, "28": {"stimulus": 61, "trial": 28, "rt": 760, "response": "Beta"}, "29": {"stimulus": 72, "trial": 29, "rt": 499, "response": "Beta"}, "40": {"stimulus": 6, "trial": 40, "rt": 436, "response": "Beta"}, "41": {"stimulus": 33, "trial": 41, "rt": 1164, "response": "Beta"}, "1": {"stimulus": 32, "trial": 1, "rt": 3030, "response": "Alpha"}, "0": {"stimulus": 19, "trial": 0, "rt": 1088, "response": "Beta"}, "3": {"stimulus": 3, "trial": 3, "rt": 819, "response": "Beta"}, "2": {"stimulus": 26, "trial": 2, "rt": 2217, "response": "Beta"}, "5": {"stimulus": 59, "trial": 5, "rt": 2845, "response": "Beta"}, "4": {"stimulus": 69, "trial": 4, "rt": 2651, "response": "Alpha"}, "7": {"stimulus": 27, "trial": 7, "rt": 1003, "response": "Beta"}, "6": {"stimulus": 76, "trial": 6, "rt": 1972, "response": "Beta"}, "9": {"stimulus": 68, "trial": 9, "rt": 369, "response": "Beta"}, "8": {"stimulus": 44, "trial": 8, "rt": 375, "response": "Beta"}, "78": {"stimulus": 54, "trial": 78, "rt": 205, "response": "Alpha"}, "51": {"stimulus": 55, "trial": 51, "rt": 754, "response": "Beta"}, "39": {"stimulus": 60, "trial": 39, "rt": 544, "response": "Alpha"}, "65": {"stimulus": 4, "trial": 65, "rt": 244, "response": "Beta"}, "76": {"stimulus": 52, "trial": 76, "rt": 10273, "response": "Beta"}, "75": {"stimulus": 14, "trial": 75, "rt": 589, "response": "Beta"}, "38": {"stimulus": 56, "trial": 38, "rt": 567, "response": "Alpha"}, "73": {"stimulus": 79, "trial": 73, "rt": 486, "response": "Beta"}, "72": {"stimulus": 5, "trial": 72, "rt": 609, "response": "Beta"}, "71": {"stimulus": 62, "trial": 71, "rt": 2142, "response": "Beta"}, "70": {"stimulus": 40, "trial": 70, "rt": 1678, "response": "Beta"}, "59": {"stimulus": 71, "trial": 59, "rt": 2006, "response": "Beta"}, "79": {"stimulus": 80, "trial": 79, "rt": 482, "response": "Alpha"}, "58": {"stimulus": 16, "trial": 58, "rt": 328, "response": "Beta"}, "11": {"stimulus": 67, "trial": 11, "rt": 367, "response": "Beta"}, "10": {"stimulus": 12, "trial": 10, "rt": 222, "response": "Beta"}, "13": {"stimulus": 36, "trial": 13, "rt": 386, "response": "Alpha"}, "12": {"stimulus": 77, "trial": 12, "rt": 636, "response": "Alpha"}, "15": {"stimulus": 24, "trial": 15, "rt": 3574, "response": "Alpha"}, "14": {"stimulus": 21, "trial": 14, "rt": 906, "response": "Alpha"}, "17": {"stimulus": 43, "trial": 17, "rt": 410, "response": "Alpha"}, "16": {"stimulus": 57, "trial": 16, "rt": 2140, "response": "Alpha"}, "19": {"stimulus": 48, "trial": 19, "rt": 2269, "response": "Alpha"}, "18": {"stimulus": 22, "trial": 18, "rt": 829, "response": "Alpha"}, "31": {"stimulus": 38, "trial": 31, "rt": 481, "response": "Beta"}, "30": {"stimulus": 78, "trial": 30, "rt": 670, "response": "Beta"}, "37": {"stimulus": 45, "trial": 37, "rt": 549, "response": "Alpha"}, "36": {"stimulus": 53, "trial": 36, "rt": 765, "response": "Alpha"}, "35": {"stimulus": 58, "trial": 35, "rt": 6793, "response": "Beta"}, "34": {"stimulus": 50, "trial": 34, "rt": 836, "response": "Beta"}, "33": {"stimulus": 66, "trial": 33, "rt": 737, "response": "Beta"}, "55": {"stimulus": 35, "trial": 55, "rt": 1502, "response": "Beta"}, "74": {"stimulus": 41, "trial": 74, "rt": 423, "response": "Beta"}, "32": {"stimulus": 29, "trial": 32, "rt": 381, "response": "Beta"}, "57": {"stimulus": 2, "trial": 57, "rt": 687, "response": "Beta"}, "50": {"stimulus": 7, "trial": 50, "rt": 1455, "response": "Beta"}}, "experiment": {"Paradigm": "TACL", "Stimuli": "Size-Color Squares and Size-Orientation Circles", "Experiment": "Generating-Multiple-Categories"}, "submit": {"timeTotal": 344702, "age": "25", "comments": "GOOD", "sex": "MALE"}}