{"info": {"finish": 1554581784703, "participant": 102, "exposed": true, "lab": false, "start": 1554581483352, "counterbalance": 5, "stimtype": "Squares", "gentype": 1, "condition": "Corner_S", "browser": {"platform": "Win32", "userAgent": "Mozilla/5.0 (Windows NT 6.1) AppleWebKit/537.36 (KHTML, like Gecko) Chrome/73.0.3683.86 Safari/537.36"}}, "observation": {"11": {"stimulus": 80, "trial": 11, "rt": 1926}, "10": {"stimulus": 8, "trial": 10, "rt": 1910}, "1": {"stimulus": 80, "trial": 1, "rt": 6653}, "0": {"stimulus": 0, "trial": 0, "rt": 3035}, "3": {"stimulus": 8, "trial": 3, "rt": 2223}, "2": {"stimulus": 72, "trial": 2, "rt": 5190}, "5": {"stimulus": 0, "trial": 5, "rt": 4427}, "4": {"stimulus": 72, "trial": 4, "rt": 2439}, "7": {"stimulus": 8, "trial": 7, "rt": 1862}, "6": {"stimulus": 80, "trial": 6, "rt": 1944}, "9": {"stimulus": 0, "trial": 9, "rt": 2230}, "8": {"stimulus": 72, "trial": 8, "rt": 2111}}, "generation": {"1": {"category": "Beta", "trial": 1, "stimulus": 56, "rt": 3849}, "0": {"category": "Beta", "trial": 0, "stimulus": 55, "rt": 30312}, "3": {"category": "Beta", "trial": 3, "stimulus": 41, "rt": 3968}, "2": {"category": "Beta", "trial": 2, "stimulus": 57, "rt": 6893}}, "generalization": {"56": {"stimulus": 24, "trial": 56, "rt": 1143, "response": "Beta"}, "77": {"stimulus": 34, "trial": 77, "rt": 1696, "response": "Alpha"}, "54": {"stimulus": 8, "trial": 54, "rt": 959, "response": "Beta"}, "42": {"stimulus": 69, "trial": 42, "rt": 670, "response": "Alpha"}, "48": {"stimulus": 28, "trial": 48, "rt": 793, "response": "Alpha"}, "43": {"stimulus": 37, "trial": 43, "rt": 1726, "response": "Alpha"}, "60": {"stimulus": 49, "trial": 60, "rt": 1063, "response": "Alpha"}, "61": {"stimulus": 73, "trial": 61, "rt": 846, "response": "Alpha"}, "62": {"stimulus": 58, "trial": 62, "rt": 871, "response": "Alpha"}, "63": {"stimulus": 29, "trial": 63, "rt": 2751, "response": "Alpha"}, "64": {"stimulus": 55, "trial": 64, "rt": 965, "response": "Alpha"}, "49": {"stimulus": 30, "trial": 49, "rt": 1664, "response": "Alpha"}, "66": {"stimulus": 31, "trial": 66, "rt": 1366, "response": "Alpha"}, "67": {"stimulus": 76, "trial": 67, "rt": 1279, "response": "Alpha"}, "68": {"stimulus": 63, "trial": 68, "rt": 934, "response": "Alpha"}, "69": {"stimulus": 1, "trial": 69, "rt": 1263, "response": "Beta"}, "80": {"stimulus": 23, "trial": 80, "rt": 501, "response": "Alpha"}, "52": {"stimulus": 9, "trial": 52, "rt": 1142, "response": "Beta"}, "53": {"stimulus": 32, "trial": 53, "rt": 1054, "response": "Alpha"}, "24": {"stimulus": 35, "trial": 24, "rt": 623, "response": "Alpha"}, "25": {"stimulus": 3, "trial": 25, "rt": 799, "response": "Beta"}, "26": {"stimulus": 64, "trial": 26, "rt": 1174, "response": "Alpha"}, "27": {"stimulus": 19, "trial": 27, "rt": 2305, "response": "Beta"}, "20": {"stimulus": 52, "trial": 20, "rt": 2415, "response": "Alpha"}, "21": {"stimulus": 68, "trial": 21, "rt": 886, "response": "Alpha"}, "22": {"stimulus": 6, "trial": 22, "rt": 1278, "response": "Beta"}, "23": {"stimulus": 15, "trial": 23, "rt": 1078, "response": "Beta"}, "46": {"stimulus": 54, "trial": 46, "rt": 799, "response": "Alpha"}, "47": {"stimulus": 0, "trial": 47, "rt": 1135, "response": "Beta"}, "44": {"stimulus": 41, "trial": 44, "rt": 687, "response": "Beta"}, "45": {"stimulus": 40, "trial": 45, "rt": 678, "response": "Alpha"}, "28": {"stimulus": 13, "trial": 28, "rt": 1061, "response": "Beta"}, "29": {"stimulus": 47, "trial": 29, "rt": 1926, "response": "Alpha"}, "40": {"stimulus": 51, "trial": 40, "rt": 1270, "response": "Alpha"}, "41": {"stimulus": 50, "trial": 41, "rt": 1326, "response": "Beta"}, "1": {"stimulus": 21, "trial": 1, "rt": 998, "response": "Alpha"}, "0": {"stimulus": 56, "trial": 0, "rt": 1819, "response": "Alpha"}, "3": {"stimulus": 72, "trial": 3, "rt": 1271, "response": "Alpha"}, "2": {"stimulus": 75, "trial": 2, "rt": 1670, "response": "Alpha"}, "5": {"stimulus": 57, "trial": 5, "rt": 847, "response": "Alpha"}, "4": {"stimulus": 2, "trial": 4, "rt": 838, "response": "Beta"}, "7": {"stimulus": 12, "trial": 7, "rt": 998, "response": "Beta"}, "6": {"stimulus": 59, "trial": 6, "rt": 1103, "response": "Alpha"}, "9": {"stimulus": 78, "trial": 9, "rt": 1504, "response": "Alpha"}, "8": {"stimulus": 46, "trial": 8, "rt": 933, "response": "Alpha"}, "78": {"stimulus": 60, "trial": 78, "rt": 1438, "response": "Alpha"}, "51": {"stimulus": 77, "trial": 51, "rt": 1325, "response": "Beta"}, "39": {"stimulus": 11, "trial": 39, "rt": 1831, "response": "Beta"}, "65": {"stimulus": 70, "trial": 65, "rt": 630, "response": "Alpha"}, "76": {"stimulus": 25, "trial": 76, "rt": 1854, "response": "Alpha"}, "75": {"stimulus": 14, "trial": 75, "rt": 1053, "response": "Alpha"}, "38": {"stimulus": 0, "trial": 38, "rt": 1034, "response": "Beta"}, "73": {"stimulus": 10, "trial": 73, "rt": 1039, "response": "Beta"}, "72": {"stimulus": 42, "trial": 72, "rt": 1093, "response": "Alpha"}, "71": {"stimulus": 16, "trial": 71, "rt": 1023, "response": "Alpha"}, "70": {"stimulus": 4, "trial": 70, "rt": 1038, "response": "Beta"}, "59": {"stimulus": 36, "trial": 59, "rt": 791, "response": "Alpha"}, "79": {"stimulus": 17, "trial": 79, "rt": 1534, "response": "Beta"}, "58": {"stimulus": 33, "trial": 58, "rt": 1038, "response": "Alpha"}, "11": {"stimulus": 20, "trial": 11, "rt": 974, "response": "Beta"}, "10": {"stimulus": 61, "trial": 10, "rt": 1014, "response": "Alpha"}, "13": {"stimulus": 79, "trial": 13, "rt": 909, "response": "Alpha"}, "12": {"stimulus": 71, "trial": 12, "rt": 1263, "response": "Alpha"}, "15": {"stimulus": 45, "trial": 15, "rt": 1558, "response": "Alpha"}, "14": {"stimulus": 62, "trial": 14, "rt": 686, "response": "Alpha"}, "17": {"stimulus": 5, "trial": 17, "rt": 1030, "response": "Beta"}, "16": {"stimulus": 7, "trial": 16, "rt": 1447, "response": "Beta"}, "19": {"stimulus": 44, "trial": 19, "rt": 1551, "response": "Alpha"}, "18": {"stimulus": 67, "trial": 18, "rt": 8701, "response": "Alpha"}, "31": {"stimulus": 43, "trial": 31, "rt": 918, "response": "Alpha"}, "30": {"stimulus": 48, "trial": 30, "rt": 1134, "response": "Alpha"}, "37": {"stimulus": 18, "trial": 37, "rt": 1515, "response": "Beta"}, "36": {"stimulus": 74, "trial": 36, "rt": 1478, "response": "Alpha"}, "35": {"stimulus": 66, "trial": 35, "rt": 711, "response": "Alpha"}, "34": {"stimulus": 38, "trial": 34, "rt": 1950, "response": "Alpha"}, "33": {"stimulus": 65, "trial": 33, "rt": 894, "response": "Alpha"}, "55": {"stimulus": 80, "trial": 55, "rt": 966, "response": "Alpha"}, "74": {"stimulus": 27, "trial": 74, "rt": 671, "response": "Alpha"}, "32": {"stimulus": 26, "trial": 32, "rt": 798, "response": "Alpha"}, "57": {"stimulus": 22, "trial": 57, "rt": 1438, "response": "Alpha"}, "50": {"stimulus": 53, "trial": 50, "rt": 798, "response": "Alpha"}}, "experiment": {"Paradigm": "TACL", "Stimuli": "Size-Color Squares and Size-Orientation Circles", "Experiment": "Generating-Multiple-Categories"}, "submit": {"timeTotal": 302493, "age": "35", "comments": "NICE", "sex": "MALE"}}