{"info": {"finish": 1554536908215, "participant": 103, "exposed": true, "lab": false, "start": 1554536502722, "counterbalance": 6, "stimtype": "Squares", "gentype": 1, "condition": "Corner_S", "browser": {"platform": "Win32", "userAgent": "Mozilla/5.0 (Windows NT 6.1; Win64; x64) AppleWebKit/537.36 (KHTML, like Gecko) Chrome/73.0.3683.103 Safari/537.36"}}, "observation": {"11": {"stimulus": 8, "trial": 11, "rt": 4111}, "10": {"stimulus": 80, "trial": 10, "rt": 1910}, "1": {"stimulus": 8, "trial": 1, "rt": 2430}, "0": {"stimulus": 80, "trial": 0, "rt": 6927}, "3": {"stimulus": 0, "trial": 3, "rt": 6487}, "2": {"stimulus": 72, "trial": 2, "rt": 5328}, "5": {"stimulus": 0, "trial": 5, "rt": 6150}, "4": {"stimulus": 80, "trial": 4, "rt": 2094}, "7": {"stimulus": 8, "trial": 7, "rt": 2110}, "6": {"stimulus": 72, "trial": 6, "rt": 2798}, "9": {"stimulus": 72, "trial": 9, "rt": 2551}, "8": {"stimulus": 0, "trial": 8, "rt": 2382}}, "generation": {"1": {"category": "Beta", "trial": 1, "stimulus": 22, "rt": 7868}, "0": {"category": "Beta", "trial": 0, "stimulus": 3, "rt": 28565}, "3": {"category": "Beta", "trial": 3, "stimulus": 48, "rt": 7765}, "2": {"category": "Beta", "trial": 2, "stimulus": 20, "rt": 8437}}, "generalization": {"56": {"stimulus": 28, "trial": 56, "rt": 3368, "response": "Alpha"}, "77": {"stimulus": 35, "trial": 77, "rt": 2998, "response": "Alpha"}, "54": {"stimulus": 27, "trial": 54, "rt": 2174, "response": "Alpha"}, "42": {"stimulus": 24, "trial": 42, "rt": 807, "response": "Alpha"}, "48": {"stimulus": 76, "trial": 48, "rt": 686, "response": "Alpha"}, "43": {"stimulus": 45, "trial": 43, "rt": 1286, "response": "Alpha"}, "60": {"stimulus": 10, "trial": 60, "rt": 742, "response": "Alpha"}, "61": {"stimulus": 13, "trial": 61, "rt": 1488, "response": "Alpha"}, "62": {"stimulus": 30, "trial": 62, "rt": 983, "response": "Alpha"}, "63": {"stimulus": 4, "trial": 63, "rt": 1407, "response": "Alpha"}, "64": {"stimulus": 37, "trial": 64, "rt": 9135, "response": "Alpha"}, "49": {"stimulus": 8, "trial": 49, "rt": 766, "response": "Alpha"}, "66": {"stimulus": 29, "trial": 66, "rt": 2566, "response": "Alpha"}, "67": {"stimulus": 49, "trial": 67, "rt": 997, "response": "Alpha"}, "68": {"stimulus": 34, "trial": 68, "rt": 3319, "response": "Alpha"}, "69": {"stimulus": 0, "trial": 69, "rt": 2438, "response": "Alpha"}, "80": {"stimulus": 69, "trial": 80, "rt": 422, "response": "Alpha"}, "52": {"stimulus": 23, "trial": 52, "rt": 1222, "response": "Alpha"}, "53": {"stimulus": 25, "trial": 53, "rt": 1037, "response": "Alpha"}, "24": {"stimulus": 2, "trial": 24, "rt": 3606, "response": "Beta"}, "25": {"stimulus": 50, "trial": 25, "rt": 2598, "response": "Alpha"}, "26": {"stimulus": 42, "trial": 26, "rt": 1302, "response": "Alpha"}, "27": {"stimulus": 32, "trial": 27, "rt": 2030, "response": "Alpha"}, "20": {"stimulus": 70, "trial": 20, "rt": 790, "response": "Alpha"}, "21": {"stimulus": 62, "trial": 21, "rt": 446, "response": "Alpha"}, "22": {"stimulus": 48, "trial": 22, "rt": 2424, "response": "Beta"}, "23": {"stimulus": 75, "trial": 23, "rt": 4613, "response": "Beta"}, "46": {"stimulus": 65, "trial": 46, "rt": 1830, "response": "Beta"}, "47": {"stimulus": 15, "trial": 47, "rt": 773, "response": "Alpha"}, "44": {"stimulus": 72, "trial": 44, "rt": 894, "response": "Alpha"}, "45": {"stimulus": 33, "trial": 45, "rt": 3455, "response": "Alpha"}, "28": {"stimulus": 43, "trial": 28, "rt": 598, "response": "Alpha"}, "29": {"stimulus": 79, "trial": 29, "rt": 791, "response": "Alpha"}, "40": {"stimulus": 61, "trial": 40, "rt": 6478, "response": "Alpha"}, "41": {"stimulus": 36, "trial": 41, "rt": 1359, "response": "Alpha"}, "1": {"stimulus": 1, "trial": 1, "rt": 2190, "response": "Alpha"}, "0": {"stimulus": 46, "trial": 0, "rt": 4788, "response": "Alpha"}, "3": {"stimulus": 77, "trial": 3, "rt": 5783, "response": "Alpha"}, "2": {"stimulus": 67, "trial": 2, "rt": 5277, "response": "Alpha"}, "5": {"stimulus": 41, "trial": 5, "rt": 1703, "response": "Alpha"}, "4": {"stimulus": 54, "trial": 4, "rt": 2782, "response": "Alpha"}, "7": {"stimulus": 9, "trial": 7, "rt": 502, "response": "Alpha"}, "6": {"stimulus": 31, "trial": 6, "rt": 1471, "response": "Beta"}, "9": {"stimulus": 73, "trial": 9, "rt": 1047, "response": "Alpha"}, "8": {"stimulus": 18, "trial": 8, "rt": 469, "response": "Beta"}, "78": {"stimulus": 0, "trial": 78, "rt": 2046, "response": "Alpha"}, "51": {"stimulus": 74, "trial": 51, "rt": 4231, "response": "Alpha"}, "39": {"stimulus": 19, "trial": 39, "rt": 1485, "response": "Alpha"}, "65": {"stimulus": 59, "trial": 65, "rt": 573, "response": "Alpha"}, "76": {"stimulus": 80, "trial": 76, "rt": 2069, "response": "Alpha"}, "75": {"stimulus": 58, "trial": 75, "rt": 1127, "response": "Alpha"}, "38": {"stimulus": 7, "trial": 38, "rt": 7440, "response": "Alpha"}, "73": {"stimulus": 52, "trial": 73, "rt": 303, "response": "Alpha"}, "72": {"stimulus": 17, "trial": 72, "rt": 407, "response": "Alpha"}, "71": {"stimulus": 40, "trial": 71, "rt": 438, "response": "Alpha"}, "70": {"stimulus": 71, "trial": 70, "rt": 1575, "response": "Alpha"}, "59": {"stimulus": 14, "trial": 59, "rt": 6437, "response": "Alpha"}, "79": {"stimulus": 78, "trial": 79, "rt": 398, "response": "Alpha"}, "58": {"stimulus": 64, "trial": 58, "rt": 1126, "response": "Alpha"}, "11": {"stimulus": 55, "trial": 11, "rt": 1998, "response": "Alpha"}, "10": {"stimulus": 20, "trial": 10, "rt": 2167, "response": "Alpha"}, "13": {"stimulus": 60, "trial": 13, "rt": 2351, "response": "Alpha"}, "12": {"stimulus": 16, "trial": 12, "rt": 1991, "response": "Alpha"}, "15": {"stimulus": 68, "trial": 15, "rt": 1264, "response": "Alpha"}, "14": {"stimulus": 63, "trial": 14, "rt": 2135, "response": "Alpha"}, "17": {"stimulus": 44, "trial": 17, "rt": 4863, "response": "Alpha"}, "16": {"stimulus": 53, "trial": 16, "rt": 2167, "response": "Alpha"}, "19": {"stimulus": 5, "trial": 19, "rt": 2063, "response": "Alpha"}, "18": {"stimulus": 51, "trial": 18, "rt": 1022, "response": "Alpha"}, "31": {"stimulus": 3, "trial": 31, "rt": 1758, "response": "Beta"}, "30": {"stimulus": 11, "trial": 30, "rt": 663, "response": "Alpha"}, "37": {"stimulus": 21, "trial": 37, "rt": 1534, "response": "Beta"}, "36": {"stimulus": 66, "trial": 36, "rt": 2038, "response": "Beta"}, "35": {"stimulus": 26, "trial": 35, "rt": 1782, "response": "Alpha"}, "34": {"stimulus": 57, "trial": 34, "rt": 2126, "response": "Beta"}, "33": {"stimulus": 12, "trial": 33, "rt": 1710, "response": "Beta"}, "55": {"stimulus": 38, "trial": 55, "rt": 4087, "response": "Beta"}, "74": {"stimulus": 22, "trial": 74, "rt": 349, "response": "Alpha"}, "32": {"stimulus": 6, "trial": 32, "rt": 887, "response": "Alpha"}, "57": {"stimulus": 47, "trial": 57, "rt": 1558, "response": "Beta"}, "50": {"stimulus": 56, "trial": 50, "rt": 1303, "response": "Beta"}}, "experiment": {"Paradigm": "TACL", "Stimuli": "Size-Color Squares and Size-Orientation Circles", "Experiment": "Generating-Multiple-Categories"}, "submit": {"timeTotal": 406780, "age": "40", "comments": "good", "sex": "Male"}}