{"info": {"finish": 1554536888307, "participant": 104, "exposed": true, "lab": false, "start": 1554536502818, "counterbalance": 7, "stimtype": "Circles", "gentype": 1, "condition": "Corner_C", "browser": {"platform": "Win32", "userAgent": "Mozilla/5.0 (Windows NT 10.0; Win64; x64) AppleWebKit/537.36 (KHTML, like Gecko) Chrome/73.0.3683.86 Safari/537.36"}}, "observation": {"11": {"stimulus": 8, "trial": 11, "rt": 1964}, "10": {"stimulus": 0, "trial": 10, "rt": 1765}, "1": {"stimulus": 80, "trial": 1, "rt": 8273}, "0": {"stimulus": 0, "trial": 0, "rt": 10220}, "3": {"stimulus": 72, "trial": 3, "rt": 4283}, "2": {"stimulus": 8, "trial": 2, "rt": 4410}, "5": {"stimulus": 72, "trial": 5, "rt": 6256}, "4": {"stimulus": 8, "trial": 4, "rt": 34224}, "7": {"stimulus": 0, "trial": 7, "rt": 2170}, "6": {"stimulus": 80, "trial": 6, "rt": 2272}, "9": {"stimulus": 80, "trial": 9, "rt": 2005}, "8": {"stimulus": 72, "trial": 8, "rt": 2870}}, "generation": {"1": {"category": "Beta", "trial": 1, "stimulus": 19, "rt": 34100}, "0": {"category": "Beta", "trial": 0, "stimulus": 20, "rt": 10980}, "3": {"category": "Beta", "trial": 3, "stimulus": 11, "rt": 6638}, "2": {"category": "Beta", "trial": 2, "stimulus": 22, "rt": 9932}}, "generalization": {"56": {"stimulus": 80, "trial": 56, "rt": 647, "response": "Alpha"}, "77": {"stimulus": 44, "trial": 77, "rt": 1351, "response": "Alpha"}, "54": {"stimulus": 45, "trial": 54, "rt": 1466, "response": "Alpha"}, "42": {"stimulus": 33, "trial": 42, "rt": 1194, "response": "Alpha"}, "48": {"stimulus": 58, "trial": 48, "rt": 1172, "response": "Beta"}, "43": {"stimulus": 0, "trial": 43, "rt": 1000, "response": "Alpha"}, "60": {"stimulus": 41, "trial": 60, "rt": 1601, "response": "Alpha"}, "61": {"stimulus": 43, "trial": 61, "rt": 909, "response": "Alpha"}, "62": {"stimulus": 25, "trial": 62, "rt": 839, "response": "Alpha"}, "63": {"stimulus": 2, "trial": 63, "rt": 958, "response": "Beta"}, "64": {"stimulus": 61, "trial": 64, "rt": 1142, "response": "Alpha"}, "49": {"stimulus": 19, "trial": 49, "rt": 890, "response": "Beta"}, "66": {"stimulus": 76, "trial": 66, "rt": 1167, "response": "Beta"}, "67": {"stimulus": 38, "trial": 67, "rt": 1080, "response": "Beta"}, "68": {"stimulus": 62, "trial": 68, "rt": 1026, "response": "Alpha"}, "69": {"stimulus": 16, "trial": 69, "rt": 1564, "response": "Alpha"}, "80": {"stimulus": 20, "trial": 80, "rt": 758, "response": "Beta"}, "52": {"stimulus": 59, "trial": 52, "rt": 1119, "response": "Alpha"}, "53": {"stimulus": 68, "trial": 53, "rt": 1096, "response": "Alpha"}, "24": {"stimulus": 37, "trial": 24, "rt": 744, "response": "Beta"}, "25": {"stimulus": 54, "trial": 25, "rt": 2207, "response": "Alpha"}, "26": {"stimulus": 79, "trial": 26, "rt": 1936, "response": "Alpha"}, "27": {"stimulus": 52, "trial": 27, "rt": 930, "response": "Alpha"}, "20": {"stimulus": 18, "trial": 20, "rt": 944, "response": "Alpha"}, "21": {"stimulus": 77, "trial": 21, "rt": 1442, "response": "Alpha"}, "22": {"stimulus": 12, "trial": 22, "rt": 897, "response": "Beta"}, "23": {"stimulus": 28, "trial": 23, "rt": 723, "response": "Beta"}, "46": {"stimulus": 34, "trial": 46, "rt": 2635, "response": "Alpha"}, "47": {"stimulus": 17, "trial": 47, "rt": 818, "response": "Alpha"}, "44": {"stimulus": 73, "trial": 44, "rt": 1027, "response": "Beta"}, "45": {"stimulus": 55, "trial": 45, "rt": 649, "response": "Beta"}, "28": {"stimulus": 14, "trial": 28, "rt": 1530, "response": "Alpha"}, "29": {"stimulus": 0, "trial": 29, "rt": 778, "response": "Alpha"}, "40": {"stimulus": 74, "trial": 40, "rt": 1202, "response": "Beta"}, "41": {"stimulus": 64, "trial": 41, "rt": 718, "response": "Beta"}, "1": {"stimulus": 50, "trial": 1, "rt": 3017, "response": "Alpha"}, "0": {"stimulus": 67, "trial": 0, "rt": 5640, "response": "Beta"}, "3": {"stimulus": 15, "trial": 3, "rt": 1139, "response": "Alpha"}, "2": {"stimulus": 22, "trial": 2, "rt": 1239, "response": "Beta"}, "5": {"stimulus": 70, "trial": 5, "rt": 1138, "response": "Alpha"}, "4": {"stimulus": 56, "trial": 4, "rt": 1757, "response": "Beta"}, "7": {"stimulus": 71, "trial": 7, "rt": 1018, "response": "Alpha"}, "6": {"stimulus": 75, "trial": 6, "rt": 860, "response": "Beta"}, "9": {"stimulus": 27, "trial": 9, "rt": 1313, "response": "Alpha"}, "8": {"stimulus": 60, "trial": 8, "rt": 1026, "response": "Beta"}, "78": {"stimulus": 10, "trial": 78, "rt": 1094, "response": "Beta"}, "51": {"stimulus": 66, "trial": 51, "rt": 862, "response": "Beta"}, "39": {"stimulus": 23, "trial": 39, "rt": 1263, "response": "Alpha"}, "65": {"stimulus": 36, "trial": 65, "rt": 1211, "response": "Alpha"}, "76": {"stimulus": 21, "trial": 76, "rt": 928, "response": "Beta"}, "75": {"stimulus": 29, "trial": 75, "rt": 1826, "response": "Beta"}, "38": {"stimulus": 72, "trial": 38, "rt": 1165, "response": "Alpha"}, "73": {"stimulus": 31, "trial": 73, "rt": 1106, "response": "Beta"}, "72": {"stimulus": 32, "trial": 72, "rt": 1347, "response": "Alpha"}, "71": {"stimulus": 57, "trial": 71, "rt": 857, "response": "Beta"}, "70": {"stimulus": 3, "trial": 70, "rt": 1197, "response": "Beta"}, "59": {"stimulus": 5, "trial": 59, "rt": 1803, "response": "Alpha"}, "79": {"stimulus": 42, "trial": 79, "rt": 1041, "response": "Alpha"}, "58": {"stimulus": 7, "trial": 58, "rt": 952, "response": "Alpha"}, "11": {"stimulus": 35, "trial": 11, "rt": 962, "response": "Alpha"}, "10": {"stimulus": 24, "trial": 10, "rt": 1426, "response": "Alpha"}, "13": {"stimulus": 8, "trial": 13, "rt": 963, "response": "Alpha"}, "12": {"stimulus": 78, "trial": 12, "rt": 954, "response": "Alpha"}, "15": {"stimulus": 65, "trial": 15, "rt": 1047, "response": "Beta"}, "14": {"stimulus": 6, "trial": 14, "rt": 985, "response": "Alpha"}, "17": {"stimulus": 4, "trial": 17, "rt": 1210, "response": "Beta"}, "16": {"stimulus": 30, "trial": 16, "rt": 915, "response": "Beta"}, "19": {"stimulus": 51, "trial": 19, "rt": 719, "response": "Alpha"}, "18": {"stimulus": 53, "trial": 18, "rt": 994, "response": "Alpha"}, "31": {"stimulus": 46, "trial": 31, "rt": 1140, "response": "Beta"}, "30": {"stimulus": 40, "trial": 30, "rt": 1187, "response": "Beta"}, "37": {"stimulus": 13, "trial": 37, "rt": 1836, "response": "Beta"}, "36": {"stimulus": 47, "trial": 36, "rt": 1269, "response": "Beta"}, "35": {"stimulus": 1, "trial": 35, "rt": 1514, "response": "Beta"}, "34": {"stimulus": 26, "trial": 34, "rt": 845, "response": "Alpha"}, "33": {"stimulus": 9, "trial": 33, "rt": 1467, "response": "Alpha"}, "55": {"stimulus": 69, "trial": 55, "rt": 858, "response": "Alpha"}, "74": {"stimulus": 48, "trial": 74, "rt": 991, "response": "Beta"}, "32": {"stimulus": 49, "trial": 32, "rt": 1282, "response": "Beta"}, "57": {"stimulus": 11, "trial": 57, "rt": 991, "response": "Beta"}, "50": {"stimulus": 63, "trial": 50, "rt": 1106, "response": "Alpha"}}, "experiment": {"Paradigm": "TACL", "Stimuli": "Size-Color Squares and Size-Orientation Circles", "Experiment": "Generating-Multiple-Categories"}, "submit": {"timeTotal": 387302, "age": "28", "comments": " i enjoy it", "sex": "male"}}