{"info": {"finish": 1554536853741, "participant": 105, "exposed": true, "lab": false, "start": 1554536513357, "counterbalance": 7, "stimtype": "Squares", "gentype": 1, "condition": "Corner_S", "browser": {"platform": "Win32", "userAgent": "Mozilla/5.0 (Windows NT 10.0; Win64; x64) AppleWebKit/537.36 (KHTML, like Gecko) Chrome/73.0.3683.86 Safari/537.36"}}, "observation": {"11": {"stimulus": 80, "trial": 11, "rt": 1613}, "10": {"stimulus": 8, "trial": 10, "rt": 1397}, "1": {"stimulus": 0, "trial": 1, "rt": 2262}, "0": {"stimulus": 8, "trial": 0, "rt": 2414}, "3": {"stimulus": 80, "trial": 3, "rt": 1627}, "2": {"stimulus": 72, "trial": 2, "rt": 1893}, "5": {"stimulus": 80, "trial": 5, "rt": 1631}, "4": {"stimulus": 72, "trial": 4, "rt": 1605}, "7": {"stimulus": 0, "trial": 7, "rt": 1489}, "6": {"stimulus": 8, "trial": 6, "rt": 1438}, "9": {"stimulus": 0, "trial": 9, "rt": 1495}, "8": {"stimulus": 72, "trial": 8, "rt": 1823}}, "generation": {"1": {"category": "Beta", "trial": 1, "stimulus": 20, "rt": 9049}, "0": {"category": "Beta", "trial": 0, "stimulus": 59, "rt": 9598}, "3": {"category": "Beta", "trial": 3, "stimulus": 11, "rt": 5102}, "2": {"category": "Beta", "trial": 2, "stimulus": 52, "rt": 11047}}, "generalization": {"56": {"stimulus": 73, "trial": 56, "rt": 1093, "response": "Alpha"}, "77": {"stimulus": 76, "trial": 77, "rt": 2117, "response": "Beta"}, "54": {"stimulus": 23, "trial": 54, "rt": 761, "response": "Beta"}, "42": {"stimulus": 58, "trial": 42, "rt": 822, "response": "Beta"}, "48": {"stimulus": 70, "trial": 48, "rt": 658, "response": "Alpha"}, "43": {"stimulus": 60, "trial": 43, "rt": 681, "response": "Beta"}, "60": {"stimulus": 71, "trial": 60, "rt": 666, "response": "Alpha"}, "61": {"stimulus": 57, "trial": 61, "rt": 1116, "response": "Beta"}, "62": {"stimulus": 18, "trial": 62, "rt": 782, "response": "Alpha"}, "63": {"stimulus": 74, "trial": 63, "rt": 828, "response": "Beta"}, "64": {"stimulus": 77, "trial": 64, "rt": 1131, "response": "Beta"}, "49": {"stimulus": 0, "trial": 49, "rt": 713, "response": "Alpha"}, "66": {"stimulus": 9, "trial": 66, "rt": 589, "response": "Alpha"}, "67": {"stimulus": 63, "trial": 67, "rt": 705, "response": "Alpha"}, "68": {"stimulus": 19, "trial": 68, "rt": 1614, "response": "Alpha"}, "69": {"stimulus": 2, "trial": 69, "rt": 2177, "response": "Beta"}, "80": {"stimulus": 45, "trial": 80, "rt": 598, "response": "Alpha"}, "52": {"stimulus": 5, "trial": 52, "rt": 667, "response": "Beta"}, "53": {"stimulus": 1, "trial": 53, "rt": 916, "response": "Alpha"}, "24": {"stimulus": 16, "trial": 24, "rt": 1075, "response": "Beta"}, "25": {"stimulus": 7, "trial": 25, "rt": 905, "response": "Beta"}, "26": {"stimulus": 0, "trial": 26, "rt": 853, "response": "Alpha"}, "27": {"stimulus": 69, "trial": 27, "rt": 1130, "response": "Beta"}, "20": {"stimulus": 50, "trial": 20, "rt": 1921, "response": "Beta"}, "21": {"stimulus": 8, "trial": 21, "rt": 588, "response": "Alpha"}, "22": {"stimulus": 33, "trial": 22, "rt": 982, "response": "Beta"}, "23": {"stimulus": 49, "trial": 23, "rt": 984, "response": "Beta"}, "46": {"stimulus": 47, "trial": 46, "rt": 675, "response": "Beta"}, "47": {"stimulus": 36, "trial": 47, "rt": 811, "response": "Alpha"}, "44": {"stimulus": 41, "trial": 44, "rt": 812, "response": "Beta"}, "45": {"stimulus": 3, "trial": 45, "rt": 1395, "response": "Beta"}, "28": {"stimulus": 30, "trial": 28, "rt": 2613, "response": "Beta"}, "29": {"stimulus": 64, "trial": 29, "rt": 939, "response": "Alpha"}, "40": {"stimulus": 22, "trial": 40, "rt": 750, "response": "Beta"}, "41": {"stimulus": 62, "trial": 41, "rt": 580, "response": "Alpha"}, "1": {"stimulus": 20, "trial": 1, "rt": 1113, "response": "Beta"}, "0": {"stimulus": 21, "trial": 0, "rt": 2334, "response": "Beta"}, "3": {"stimulus": 10, "trial": 3, "rt": 2223, "response": "Alpha"}, "2": {"stimulus": 65, "trial": 2, "rt": 4010, "response": "Alpha"}, "5": {"stimulus": 35, "trial": 5, "rt": 935, "response": "Alpha"}, "4": {"stimulus": 72, "trial": 4, "rt": 1940, "response": "Alpha"}, "7": {"stimulus": 29, "trial": 7, "rt": 1195, "response": "Beta"}, "6": {"stimulus": 59, "trial": 6, "rt": 1482, "response": "Beta"}, "9": {"stimulus": 79, "trial": 9, "rt": 2467, "response": "Beta"}, "8": {"stimulus": 56, "trial": 8, "rt": 2270, "response": "Beta"}, "78": {"stimulus": 54, "trial": 78, "rt": 859, "response": "Alpha"}, "51": {"stimulus": 6, "trial": 51, "rt": 838, "response": "Beta"}, "39": {"stimulus": 75, "trial": 39, "rt": 765, "response": "Beta"}, "65": {"stimulus": 52, "trial": 65, "rt": 1110, "response": "Beta"}, "76": {"stimulus": 32, "trial": 76, "rt": 1134, "response": "Beta"}, "75": {"stimulus": 53, "trial": 75, "rt": 665, "response": "Alpha"}, "38": {"stimulus": 66, "trial": 38, "rt": 767, "response": "Beta"}, "73": {"stimulus": 11, "trial": 73, "rt": 728, "response": "Beta"}, "72": {"stimulus": 38, "trial": 72, "rt": 837, "response": "Beta"}, "71": {"stimulus": 46, "trial": 71, "rt": 928, "response": "Beta"}, "70": {"stimulus": 61, "trial": 70, "rt": 1279, "response": "Beta"}, "59": {"stimulus": 42, "trial": 59, "rt": 969, "response": "Beta"}, "79": {"stimulus": 51, "trial": 79, "rt": 869, "response": "Beta"}, "58": {"stimulus": 28, "trial": 58, "rt": 1495, "response": "Alpha"}, "11": {"stimulus": 80, "trial": 11, "rt": 494, "response": "Alpha"}, "10": {"stimulus": 78, "trial": 10, "rt": 877, "response": "Beta"}, "13": {"stimulus": 17, "trial": 13, "rt": 671, "response": "Alpha"}, "12": {"stimulus": 40, "trial": 12, "rt": 2870, "response": "Beta"}, "15": {"stimulus": 34, "trial": 15, "rt": 1526, "response": "Beta"}, "14": {"stimulus": 27, "trial": 14, "rt": 1372, "response": "Alpha"}, "17": {"stimulus": 55, "trial": 17, "rt": 885, "response": "Alpha"}, "16": {"stimulus": 37, "trial": 16, "rt": 1094, "response": "Alpha"}, "19": {"stimulus": 48, "trial": 19, "rt": 2165, "response": "Beta"}, "18": {"stimulus": 13, "trial": 18, "rt": 1466, "response": "Beta"}, "31": {"stimulus": 24, "trial": 31, "rt": 937, "response": "Beta"}, "30": {"stimulus": 25, "trial": 30, "rt": 783, "response": "Beta"}, "37": {"stimulus": 67, "trial": 37, "rt": 652, "response": "Beta"}, "36": {"stimulus": 14, "trial": 36, "rt": 674, "response": "Beta"}, "35": {"stimulus": 43, "trial": 35, "rt": 993, "response": "Beta"}, "34": {"stimulus": 4, "trial": 34, "rt": 744, "response": "Beta"}, "33": {"stimulus": 12, "trial": 33, "rt": 1798, "response": "Beta"}, "55": {"stimulus": 31, "trial": 55, "rt": 2007, "response": "Alpha"}, "74": {"stimulus": 15, "trial": 74, "rt": 1171, "response": "Beta"}, "32": {"stimulus": 68, "trial": 32, "rt": 1077, "response": "Beta"}, "57": {"stimulus": 26, "trial": 57, "rt": 666, "response": "Alpha"}, "50": {"stimulus": 44, "trial": 50, "rt": 643, "response": "Alpha"}}, "experiment": {"Paradigm": "TACL", "Stimuli": "Size-Color Squares and Size-Orientation Circles", "Experiment": "Generating-Multiple-Categories"}, "submit": {"timeTotal": 340544, "age": "29", "comments": "", "sex": "male"}}