{"info": {"finish": 1554537128678, "participant": 106, "exposed": true, "lab": false, "start": 1554536569807, "counterbalance": 7, "stimtype": "Circles", "gentype": 1, "condition": "Corner_C", "browser": {"platform": "Win32", "userAgent": "Mozilla/5.0 (Windows NT 6.1) AppleWebKit/537.36 (KHTML, like Gecko) Chrome/73.0.3683.86 Safari/537.36"}}, "observation": {"11": {"stimulus": 80, "trial": 11, "rt": 3629}, "10": {"stimulus": 8, "trial": 10, "rt": 3005}, "1": {"stimulus": 0, "trial": 1, "rt": 2741}, "0": {"stimulus": 8, "trial": 0, "rt": 16415}, "3": {"stimulus": 72, "trial": 3, "rt": 2061}, "2": {"stimulus": 80, "trial": 2, "rt": 2988}, "5": {"stimulus": 8, "trial": 5, "rt": 7154}, "4": {"stimulus": 0, "trial": 4, "rt": 5381}, "7": {"stimulus": 72, "trial": 7, "rt": 8682}, "6": {"stimulus": 80, "trial": 6, "rt": 2862}, "9": {"stimulus": 72, "trial": 9, "rt": 4198}, "8": {"stimulus": 0, "trial": 8, "rt": 3700}}, "generation": {"1": {"category": "Beta", "trial": 1, "stimulus": 11, "rt": 20390}, "0": {"category": "Beta", "trial": 0, "stimulus": 20, "rt": 9736}, "3": {"category": "Beta", "trial": 3, "stimulus": 21, "rt": 2903}, "2": {"category": "Beta", "trial": 2, "stimulus": 29, "rt": 4295}}, "generalization": {"56": {"stimulus": 31, "trial": 56, "rt": 4982, "response": "Beta"}, "77": {"stimulus": 45, "trial": 77, "rt": 998, "response": "Alpha"}, "54": {"stimulus": 48, "trial": 54, "rt": 492, "response": "Beta"}, "42": {"stimulus": 10, "trial": 42, "rt": 1276, "response": "Beta"}, "48": {"stimulus": 34, "trial": 48, "rt": 645, "response": "Alpha"}, "43": {"stimulus": 23, "trial": 43, "rt": 1115, "response": "Beta"}, "60": {"stimulus": 56, "trial": 60, "rt": 1380, "response": "Beta"}, "61": {"stimulus": 8, "trial": 61, "rt": 684, "response": "Alpha"}, "62": {"stimulus": 0, "trial": 62, "rt": 1020, "response": "Alpha"}, "63": {"stimulus": 13, "trial": 63, "rt": 916, "response": "Beta"}, "64": {"stimulus": 24, "trial": 64, "rt": 845, "response": "Alpha"}, "49": {"stimulus": 68, "trial": 49, "rt": 891, "response": "Alpha"}, "66": {"stimulus": 44, "trial": 66, "rt": 837, "response": "Alpha"}, "67": {"stimulus": 69, "trial": 67, "rt": 1141, "response": "Alpha"}, "68": {"stimulus": 51, "trial": 68, "rt": 4357, "response": "Alpha"}, "69": {"stimulus": 53, "trial": 69, "rt": 933, "response": "Alpha"}, "80": {"stimulus": 11, "trial": 80, "rt": 6243, "response": "Beta"}, "52": {"stimulus": 71, "trial": 52, "rt": 619, "response": "Alpha"}, "53": {"stimulus": 21, "trial": 53, "rt": 748, "response": "Beta"}, "24": {"stimulus": 25, "trial": 24, "rt": 884, "response": "Alpha"}, "25": {"stimulus": 43, "trial": 25, "rt": 717, "response": "Alpha"}, "26": {"stimulus": 37, "trial": 26, "rt": 772, "response": "Beta"}, "27": {"stimulus": 66, "trial": 27, "rt": 1090, "response": "Beta"}, "20": {"stimulus": 30, "trial": 20, "rt": 4987, "response": "Beta"}, "21": {"stimulus": 62, "trial": 21, "rt": 886, "response": "Alpha"}, "22": {"stimulus": 36, "trial": 22, "rt": 2581, "response": "Alpha"}, "23": {"stimulus": 49, "trial": 23, "rt": 1444, "response": "Beta"}, "46": {"stimulus": 80, "trial": 46, "rt": 725, "response": "Alpha"}, "47": {"stimulus": 32, "trial": 47, "rt": 1102, "response": "Alpha"}, "44": {"stimulus": 65, "trial": 44, "rt": 925, "response": "Beta"}, "45": {"stimulus": 19, "trial": 45, "rt": 826, "response": "Beta"}, "28": {"stimulus": 58, "trial": 28, "rt": 884, "response": "Beta"}, "29": {"stimulus": 57, "trial": 29, "rt": 3854, "response": "Beta"}, "40": {"stimulus": 75, "trial": 40, "rt": 1045, "response": "Beta"}, "41": {"stimulus": 3, "trial": 41, "rt": 604, "response": "Beta"}, "1": {"stimulus": 70, "trial": 1, "rt": 1973, "response": "Alpha"}, "0": {"stimulus": 29, "trial": 0, "rt": 4851, "response": "Beta"}, "3": {"stimulus": 35, "trial": 3, "rt": 1691, "response": "Alpha"}, "2": {"stimulus": 4, "trial": 2, "rt": 2620, "response": "Alpha"}, "5": {"stimulus": 60, "trial": 5, "rt": 2773, "response": "Alpha"}, "4": {"stimulus": 61, "trial": 4, "rt": 1814, "response": "Beta"}, "7": {"stimulus": 79, "trial": 7, "rt": 1180, "response": "Beta"}, "6": {"stimulus": 59, "trial": 6, "rt": 1708, "response": "Alpha"}, "9": {"stimulus": 52, "trial": 9, "rt": 1115, "response": "Alpha"}, "8": {"stimulus": 74, "trial": 8, "rt": 916, "response": "Beta"}, "78": {"stimulus": 73, "trial": 78, "rt": 22691, "response": "Beta"}, "51": {"stimulus": 40, "trial": 51, "rt": 932, "response": "Beta"}, "39": {"stimulus": 50, "trial": 39, "rt": 8228, "response": "Alpha"}, "65": {"stimulus": 16, "trial": 65, "rt": 971, "response": "Alpha"}, "76": {"stimulus": 0, "trial": 76, "rt": 6908, "response": "Alpha"}, "75": {"stimulus": 15, "trial": 75, "rt": 1172, "response": "Alpha"}, "38": {"stimulus": 63, "trial": 38, "rt": 908, "response": "Alpha"}, "73": {"stimulus": 67, "trial": 73, "rt": 86469, "response": "Beta"}, "72": {"stimulus": 33, "trial": 72, "rt": 1782, "response": "Alpha"}, "71": {"stimulus": 42, "trial": 71, "rt": 1323, "response": "Alpha"}, "70": {"stimulus": 27, "trial": 70, "rt": 748, "response": "Alpha"}, "59": {"stimulus": 26, "trial": 59, "rt": 9111, "response": "Alpha"}, "79": {"stimulus": 9, "trial": 79, "rt": 2228, "response": "Alpha"}, "58": {"stimulus": 41, "trial": 58, "rt": 6086, "response": "Alpha"}, "11": {"stimulus": 1, "trial": 11, "rt": 1413, "response": "Beta"}, "10": {"stimulus": 7, "trial": 10, "rt": 2646, "response": "Alpha"}, "13": {"stimulus": 76, "trial": 13, "rt": 1148, "response": "Beta"}, "12": {"stimulus": 17, "trial": 12, "rt": 1228, "response": "Alpha"}, "15": {"stimulus": 2, "trial": 15, "rt": 1116, "response": "Beta"}, "14": {"stimulus": 12, "trial": 14, "rt": 900, "response": "Beta"}, "17": {"stimulus": 38, "trial": 17, "rt": 2051, "response": "Alpha"}, "16": {"stimulus": 64, "trial": 16, "rt": 1445, "response": "Beta"}, "19": {"stimulus": 6, "trial": 19, "rt": 3340, "response": "Alpha"}, "18": {"stimulus": 5, "trial": 18, "rt": 19787, "response": "Alpha"}, "31": {"stimulus": 54, "trial": 31, "rt": 33228, "response": "Alpha"}, "30": {"stimulus": 55, "trial": 30, "rt": 1676, "response": "Beta"}, "37": {"stimulus": 47, "trial": 37, "rt": 612, "response": "Beta"}, "36": {"stimulus": 28, "trial": 36, "rt": 1157, "response": "Beta"}, "35": {"stimulus": 72, "trial": 35, "rt": 908, "response": "Alpha"}, "34": {"stimulus": 20, "trial": 34, "rt": 2045, "response": "Beta"}, "33": {"stimulus": 14, "trial": 33, "rt": 7861, "response": "Beta"}, "55": {"stimulus": 46, "trial": 55, "rt": 1493, "response": "Beta"}, "74": {"stimulus": 77, "trial": 74, "rt": 1717, "response": "Alpha"}, "32": {"stimulus": 18, "trial": 32, "rt": 3380, "response": "Alpha"}, "57": {"stimulus": 22, "trial": 57, "rt": 1053, "response": "Beta"}, "50": {"stimulus": 78, "trial": 50, "rt": 836, "response": "Alpha"}}, "experiment": {"Paradigm": "TACL", "Stimuli": "Size-Color Squares and Size-Orientation Circles", "Experiment": "Generating-Multiple-Categories"}, "submit": {"timeTotal": 560982, "age": "43", "comments": "", "sex": "Female"}}