{"info": {"finish": 1554537617674, "participant": 107, "exposed": true, "lab": false, "start": 1554536733741, "counterbalance": 0, "stimtype": "Circles", "gentype": 1, "condition": "Corner_C", "browser": {"platform": "Win32", "userAgent": "Mozilla/5.0 (Windows NT 10.0; Win64; x64) AppleWebKit/537.36 (KHTML, like Gecko) Chrome/73.0.3683.86 Safari/537.36"}}, "observation": {"11": {"stimulus": 72, "trial": 11, "rt": 14501}, "10": {"stimulus": 80, "trial": 10, "rt": 10077}, "1": {"stimulus": 72, "trial": 1, "rt": 5005}, "0": {"stimulus": 80, "trial": 0, "rt": 14350}, "3": {"stimulus": 8, "trial": 3, "rt": 5846}, "2": {"stimulus": 0, "trial": 2, "rt": 10278}, "5": {"stimulus": 72, "trial": 5, "rt": 6768}, "4": {"stimulus": 80, "trial": 4, "rt": 15857}, "7": {"stimulus": 8, "trial": 7, "rt": 7709}, "6": {"stimulus": 0, "trial": 6, "rt": 4757}, "9": {"stimulus": 8, "trial": 9, "rt": 42406}, "8": {"stimulus": 0, "trial": 8, "rt": 7407}}, "generation": {"1": {"category": "Beta", "trial": 1, "stimulus": 49, "rt": 30453}, "0": {"category": "Beta", "trial": 0, "stimulus": 58, "rt": 61560}, "3": {"category": "Beta", "trial": 3, "stimulus": 40, "rt": 95949}, "2": {"category": "Beta", "trial": 2, "stimulus": 50, "rt": 95301}}, "generalization": {"56": {"stimulus": 7, "trial": 56, "rt": 671, "response": "Alpha"}, "77": {"stimulus": 52, "trial": 77, "rt": 1095, "response": "Beta"}, "54": {"stimulus": 16, "trial": 54, "rt": 957, "response": "Alpha"}, "42": {"stimulus": 71, "trial": 42, "rt": 1135, "response": "Beta"}, "48": {"stimulus": 28, "trial": 48, "rt": 3045, "response": "Alpha"}, "43": {"stimulus": 8, "trial": 43, "rt": 1086, "response": "Alpha"}, "60": {"stimulus": 69, "trial": 60, "rt": 937, "response": "Beta"}, "61": {"stimulus": 60, "trial": 61, "rt": 1563, "response": "Beta"}, "62": {"stimulus": 59, "trial": 62, "rt": 900, "response": "Beta"}, "63": {"stimulus": 23, "trial": 63, "rt": 964, "response": "Alpha"}, "64": {"stimulus": 3, "trial": 64, "rt": 1765, "response": "Alpha"}, "49": {"stimulus": 70, "trial": 49, "rt": 1213, "response": "Beta"}, "66": {"stimulus": 43, "trial": 66, "rt": 4152, "response": "Beta"}, "67": {"stimulus": 44, "trial": 67, "rt": 1912, "response": "Beta"}, "68": {"stimulus": 37, "trial": 68, "rt": 1173, "response": "Beta"}, "69": {"stimulus": 58, "trial": 69, "rt": 1542, "response": "Beta"}, "80": {"stimulus": 17, "trial": 80, "rt": 627, "response": "Alpha"}, "52": {"stimulus": 40, "trial": 52, "rt": 3414, "response": "Beta"}, "53": {"stimulus": 15, "trial": 53, "rt": 2525, "response": "Alpha"}, "24": {"stimulus": 5, "trial": 24, "rt": 1494, "response": "Alpha"}, "25": {"stimulus": 56, "trial": 25, "rt": 3718, "response": "Beta"}, "26": {"stimulus": 66, "trial": 26, "rt": 1652, "response": "Beta"}, "27": {"stimulus": 76, "trial": 27, "rt": 1389, "response": "Alpha"}, "20": {"stimulus": 41, "trial": 20, "rt": 1201, "response": "Beta"}, "21": {"stimulus": 53, "trial": 21, "rt": 1867, "response": "Beta"}, "22": {"stimulus": 77, "trial": 22, "rt": 1508, "response": "Alpha"}, "23": {"stimulus": 26, "trial": 23, "rt": 1717, "response": "Alpha"}, "46": {"stimulus": 36, "trial": 46, "rt": 4679, "response": "Beta"}, "47": {"stimulus": 54, "trial": 47, "rt": 2104, "response": "Beta"}, "44": {"stimulus": 11, "trial": 44, "rt": 1789, "response": "Alpha"}, "45": {"stimulus": 12, "trial": 45, "rt": 808, "response": "Alpha"}, "28": {"stimulus": 24, "trial": 28, "rt": 1472, "response": "Alpha"}, "29": {"stimulus": 78, "trial": 29, "rt": 4948, "response": "Alpha"}, "40": {"stimulus": 65, "trial": 40, "rt": 886, "response": "Beta"}, "41": {"stimulus": 1, "trial": 41, "rt": 1112, "response": "Alpha"}, "1": {"stimulus": 46, "trial": 1, "rt": 4332, "response": "Beta"}, "0": {"stimulus": 31, "trial": 0, "rt": 24545, "response": "Alpha"}, "3": {"stimulus": 49, "trial": 3, "rt": 1342, "response": "Beta"}, "2": {"stimulus": 68, "trial": 2, "rt": 38660, "response": "Beta"}, "5": {"stimulus": 29, "trial": 5, "rt": 7283, "response": "Beta"}, "4": {"stimulus": 10, "trial": 4, "rt": 1306, "response": "Alpha"}, "7": {"stimulus": 4, "trial": 7, "rt": 884, "response": "Alpha"}, "6": {"stimulus": 18, "trial": 6, "rt": 1743, "response": "Alpha"}, "9": {"stimulus": 67, "trial": 9, "rt": 888, "response": "Beta"}, "8": {"stimulus": 57, "trial": 8, "rt": 1134, "response": "Beta"}, "78": {"stimulus": 27, "trial": 78, "rt": 2957, "response": "Alpha"}, "51": {"stimulus": 30, "trial": 51, "rt": 1617, "response": "Alpha"}, "39": {"stimulus": 19, "trial": 39, "rt": 1157, "response": "Alpha"}, "65": {"stimulus": 0, "trial": 65, "rt": 790, "response": "Alpha"}, "76": {"stimulus": 55, "trial": 76, "rt": 2693, "response": "Beta"}, "75": {"stimulus": 61, "trial": 75, "rt": 1205, "response": "Beta"}, "38": {"stimulus": 62, "trial": 38, "rt": 997, "response": "Beta"}, "73": {"stimulus": 0, "trial": 73, "rt": 1007, "response": "Alpha"}, "72": {"stimulus": 13, "trial": 72, "rt": 1735, "response": "Alpha"}, "71": {"stimulus": 14, "trial": 71, "rt": 1083, "response": "Alpha"}, "70": {"stimulus": 75, "trial": 70, "rt": 984, "response": "Alpha"}, "59": {"stimulus": 63, "trial": 59, "rt": 1174, "response": "Beta"}, "79": {"stimulus": 6, "trial": 79, "rt": 1278, "response": "Alpha"}, "58": {"stimulus": 20, "trial": 58, "rt": 1059, "response": "Alpha"}, "11": {"stimulus": 42, "trial": 11, "rt": 1104, "response": "Beta"}, "10": {"stimulus": 35, "trial": 10, "rt": 2212, "response": "Alpha"}, "13": {"stimulus": 80, "trial": 13, "rt": 1384, "response": "Alpha"}, "12": {"stimulus": 34, "trial": 12, "rt": 1790, "response": "Alpha"}, "15": {"stimulus": 38, "trial": 15, "rt": 1073, "response": "Beta"}, "14": {"stimulus": 21, "trial": 14, "rt": 1074, "response": "Alpha"}, "17": {"stimulus": 45, "trial": 17, "rt": 1103, "response": "Beta"}, "16": {"stimulus": 9, "trial": 16, "rt": 2301, "response": "Alpha"}, "19": {"stimulus": 51, "trial": 19, "rt": 896, "response": "Beta"}, "18": {"stimulus": 50, "trial": 18, "rt": 1344, "response": "Beta"}, "31": {"stimulus": 72, "trial": 31, "rt": 12853, "response": "Alpha"}, "30": {"stimulus": 25, "trial": 30, "rt": 5769, "response": "Alpha"}, "37": {"stimulus": 22, "trial": 37, "rt": 1006, "response": "Alpha"}, "36": {"stimulus": 48, "trial": 36, "rt": 1164, "response": "Beta"}, "35": {"stimulus": 74, "trial": 35, "rt": 2013, "response": "Alpha"}, "34": {"stimulus": 79, "trial": 34, "rt": 1104, "response": "Alpha"}, "33": {"stimulus": 33, "trial": 33, "rt": 2679, "response": "Alpha"}, "55": {"stimulus": 73, "trial": 55, "rt": 904, "response": "Alpha"}, "74": {"stimulus": 64, "trial": 74, "rt": 2487, "response": "Beta"}, "32": {"stimulus": 47, "trial": 32, "rt": 2516, "response": "Beta"}, "57": {"stimulus": 32, "trial": 57, "rt": 2284, "response": "Alpha"}, "50": {"stimulus": 2, "trial": 50, "rt": 1240, "response": "Alpha"}}, "experiment": {"Paradigm": "TACL", "Stimuli": "Size-Color Squares and Size-Orientation Circles", "Experiment": "Generating-Multiple-Categories"}, "submit": {"timeTotal": 886078, "age": "28", "comments": "na", "sex": "male"}}