{"info": {"finish": 1554537352525, "participant": 109, "exposed": true, "lab": false, "start": 1554537028353, "counterbalance": 0, "stimtype": "Circles", "gentype": 1, "condition": "Corner_C", "browser": {"platform": "Linux x86_64", "userAgent": "Mozilla/5.0 (X11; CrOS x86_64 11316.165.0) AppleWebKit/537.36 (KHTML, like Gecko) Chrome/72.0.3626.122 Safari/537.36"}}, "observation": {"11": {"stimulus": 0, "trial": 11, "rt": 2189}, "10": {"stimulus": 80, "trial": 10, "rt": 1886}, "1": {"stimulus": 0, "trial": 1, "rt": 4070}, "0": {"stimulus": 72, "trial": 0, "rt": 3044}, "3": {"stimulus": 8, "trial": 3, "rt": 2301}, "2": {"stimulus": 80, "trial": 2, "rt": 3141}, "5": {"stimulus": 72, "trial": 5, "rt": 5420}, "4": {"stimulus": 80, "trial": 4, "rt": 2374}, "7": {"stimulus": 8, "trial": 7, "rt": 1878}, "6": {"stimulus": 0, "trial": 6, "rt": 2180}, "9": {"stimulus": 72, "trial": 9, "rt": 2852}, "8": {"stimulus": 8, "trial": 8, "rt": 1694}}, "generation": {"1": {"category": "Beta", "trial": 1, "stimulus": 40, "rt": 10181}, "0": {"category": "Beta", "trial": 0, "stimulus": 39, "rt": 18598}, "3": {"category": "Beta", "trial": 3, "stimulus": 37, "rt": 23878}, "2": {"category": "Beta", "trial": 2, "stimulus": 48, "rt": 13901}}, "generalization": {"56": {"stimulus": 41, "trial": 56, "rt": 1308, "response": "Beta"}, "77": {"stimulus": 76, "trial": 77, "rt": 694, "response": "Alpha"}, "54": {"stimulus": 35, "trial": 54, "rt": 868, "response": "Alpha"}, "42": {"stimulus": 62, "trial": 42, "rt": 3281, "response": "Beta"}, "48": {"stimulus": 11, "trial": 48, "rt": 949, "response": "Alpha"}, "43": {"stimulus": 61, "trial": 43, "rt": 788, "response": "Beta"}, "60": {"stimulus": 5, "trial": 60, "rt": 1006, "response": "Alpha"}, "61": {"stimulus": 78, "trial": 61, "rt": 771, "response": "Alpha"}, "62": {"stimulus": 71, "trial": 62, "rt": 974, "response": "Beta"}, "63": {"stimulus": 73, "trial": 63, "rt": 980, "response": "Alpha"}, "64": {"stimulus": 46, "trial": 64, "rt": 1106, "response": "Beta"}, "49": {"stimulus": 33, "trial": 49, "rt": 1277, "response": "Alpha"}, "66": {"stimulus": 48, "trial": 66, "rt": 1100, "response": "Beta"}, "67": {"stimulus": 0, "trial": 67, "rt": 1229, "response": "Alpha"}, "68": {"stimulus": 75, "trial": 68, "rt": 1021, "response": "Alpha"}, "69": {"stimulus": 53, "trial": 69, "rt": 1004, "response": "Beta"}, "80": {"stimulus": 19, "trial": 80, "rt": 1037, "response": "Alpha"}, "52": {"stimulus": 26, "trial": 52, "rt": 701, "response": "Alpha"}, "53": {"stimulus": 23, "trial": 53, "rt": 604, "response": "Alpha"}, "24": {"stimulus": 72, "trial": 24, "rt": 3172, "response": "Alpha"}, "25": {"stimulus": 55, "trial": 25, "rt": 1891, "response": "Beta"}, "26": {"stimulus": 51, "trial": 26, "rt": 954, "response": "Beta"}, "27": {"stimulus": 67, "trial": 27, "rt": 1129, "response": "Beta"}, "20": {"stimulus": 24, "trial": 20, "rt": 763, "response": "Alpha"}, "21": {"stimulus": 74, "trial": 21, "rt": 765, "response": "Alpha"}, "22": {"stimulus": 6, "trial": 22, "rt": 827, "response": "Alpha"}, "23": {"stimulus": 45, "trial": 23, "rt": 1124, "response": "Beta"}, "46": {"stimulus": 66, "trial": 46, "rt": 1102, "response": "Beta"}, "47": {"stimulus": 40, "trial": 47, "rt": 2393, "response": "Beta"}, "44": {"stimulus": 9, "trial": 44, "rt": 994, "response": "Alpha"}, "45": {"stimulus": 54, "trial": 45, "rt": 1082, "response": "Beta"}, "28": {"stimulus": 7, "trial": 28, "rt": 1291, "response": "Alpha"}, "29": {"stimulus": 13, "trial": 29, "rt": 694, "response": "Alpha"}, "40": {"stimulus": 42, "trial": 40, "rt": 1173, "response": "Beta"}, "41": {"stimulus": 31, "trial": 41, "rt": 1259, "response": "Alpha"}, "1": {"stimulus": 56, "trial": 1, "rt": 986, "response": "Beta"}, "0": {"stimulus": 12, "trial": 0, "rt": 3020, "response": "Alpha"}, "3": {"stimulus": 34, "trial": 3, "rt": 2229, "response": "Alpha"}, "2": {"stimulus": 8, "trial": 2, "rt": 996, "response": "Alpha"}, "5": {"stimulus": 49, "trial": 5, "rt": 854, "response": "Beta"}, "4": {"stimulus": 80, "trial": 4, "rt": 1710, "response": "Alpha"}, "7": {"stimulus": 37, "trial": 7, "rt": 1356, "response": "Beta"}, "6": {"stimulus": 0, "trial": 6, "rt": 1032, "response": "Alpha"}, "9": {"stimulus": 16, "trial": 9, "rt": 1106, "response": "Alpha"}, "8": {"stimulus": 3, "trial": 8, "rt": 996, "response": "Alpha"}, "78": {"stimulus": 50, "trial": 78, "rt": 1054, "response": "Beta"}, "51": {"stimulus": 32, "trial": 51, "rt": 1018, "response": "Alpha"}, "39": {"stimulus": 14, "trial": 39, "rt": 774, "response": "Alpha"}, "65": {"stimulus": 43, "trial": 65, "rt": 1093, "response": "Beta"}, "76": {"stimulus": 20, "trial": 76, "rt": 766, "response": "Alpha"}, "75": {"stimulus": 2, "trial": 75, "rt": 1270, "response": "Alpha"}, "38": {"stimulus": 17, "trial": 38, "rt": 929, "response": "Alpha"}, "73": {"stimulus": 1, "trial": 73, "rt": 1259, "response": "Alpha"}, "72": {"stimulus": 57, "trial": 72, "rt": 782, "response": "Beta"}, "71": {"stimulus": 59, "trial": 71, "rt": 1056, "response": "Beta"}, "70": {"stimulus": 27, "trial": 70, "rt": 1350, "response": "Alpha"}, "59": {"stimulus": 64, "trial": 59, "rt": 965, "response": "Beta"}, "79": {"stimulus": 60, "trial": 79, "rt": 679, "response": "Beta"}, "58": {"stimulus": 28, "trial": 58, "rt": 1143, "response": "Alpha"}, "11": {"stimulus": 21, "trial": 11, "rt": 932, "response": "Alpha"}, "10": {"stimulus": 68, "trial": 10, "rt": 804, "response": "Beta"}, "13": {"stimulus": 77, "trial": 13, "rt": 1142, "response": "Alpha"}, "12": {"stimulus": 65, "trial": 12, "rt": 998, "response": "Beta"}, "15": {"stimulus": 63, "trial": 15, "rt": 987, "response": "Beta"}, "14": {"stimulus": 10, "trial": 14, "rt": 932, "response": "Alpha"}, "17": {"stimulus": 47, "trial": 17, "rt": 1252, "response": "Beta"}, "16": {"stimulus": 79, "trial": 16, "rt": 1052, "response": "Alpha"}, "19": {"stimulus": 22, "trial": 19, "rt": 1132, "response": "Alpha"}, "18": {"stimulus": 52, "trial": 18, "rt": 813, "response": "Beta"}, "31": {"stimulus": 25, "trial": 31, "rt": 700, "response": "Alpha"}, "30": {"stimulus": 4, "trial": 30, "rt": 603, "response": "Alpha"}, "37": {"stimulus": 69, "trial": 37, "rt": 858, "response": "Beta"}, "36": {"stimulus": 38, "trial": 36, "rt": 558, "response": "Beta"}, "35": {"stimulus": 29, "trial": 35, "rt": 833, "response": "Alpha"}, "34": {"stimulus": 18, "trial": 34, "rt": 1062, "response": "Alpha"}, "33": {"stimulus": 36, "trial": 33, "rt": 612, "response": "Beta"}, "55": {"stimulus": 30, "trial": 55, "rt": 757, "response": "Alpha"}, "74": {"stimulus": 70, "trial": 74, "rt": 965, "response": "Beta"}, "32": {"stimulus": 58, "trial": 32, "rt": 1004, "response": "Beta"}, "57": {"stimulus": 44, "trial": 57, "rt": 613, "response": "Beta"}, "50": {"stimulus": 15, "trial": 50, "rt": 1348, "response": "Alpha"}}, "experiment": {"Paradigm": "TACL", "Stimuli": "Size-Color Squares and Size-Orientation Circles", "Experiment": "Generating-Multiple-Categories"}, "submit": {"timeTotal": 324451, "age": "64", "comments": "good", "sex": "male"}}