{"info": {"finish": 1554494232395, "participant": 11, "exposed": true, "lab": false, "start": 1554493326557, "counterbalance": 4, "stimtype": "Squares", "gentype": 1, "condition": "Corner_S", "browser": {"platform": "Win32", "userAgent": "Mozilla/5.0 (Windows NT 10.0; Win64; x64) AppleWebKit/537.36 (KHTML, like Gecko) Chrome/73.0.3683.86 Safari/537.36"}}, "observation": {"11": {"stimulus": 72, "trial": 11, "rt": 3263}, "10": {"stimulus": 8, "trial": 10, "rt": 2007}, "1": {"stimulus": 72, "trial": 1, "rt": 3465}, "0": {"stimulus": 0, "trial": 0, "rt": 479011}, "3": {"stimulus": 8, "trial": 3, "rt": 3797}, "2": {"stimulus": 80, "trial": 2, "rt": 6358}, "5": {"stimulus": 80, "trial": 5, "rt": 2357}, "4": {"stimulus": 8, "trial": 4, "rt": 2655}, "7": {"stimulus": 72, "trial": 7, "rt": 2318}, "6": {"stimulus": 0, "trial": 6, "rt": 2306}, "9": {"stimulus": 0, "trial": 9, "rt": 5029}, "8": {"stimulus": 80, "trial": 8, "rt": 2217}}, "generation": {"1": {"category": "Beta", "trial": 1, "stimulus": 40, "rt": 27200}, "0": {"category": "Beta", "trial": 0, "stimulus": 5, "rt": 45069}, "3": {"category": "Beta", "trial": 3, "stimulus": 3, "rt": 22380}, "2": {"category": "Beta", "trial": 2, "stimulus": 41, "rt": 29093}}, "generalization": {"56": {"stimulus": 6, "trial": 56, "rt": 1135, "response": "Beta"}, "77": {"stimulus": 25, "trial": 77, "rt": 781, "response": "Beta"}, "54": {"stimulus": 47, "trial": 54, "rt": 844, "response": "Beta"}, "42": {"stimulus": 34, "trial": 42, "rt": 1253, "response": "Beta"}, "48": {"stimulus": 50, "trial": 48, "rt": 1076, "response": "Beta"}, "43": {"stimulus": 71, "trial": 43, "rt": 1591, "response": "Alpha"}, "60": {"stimulus": 73, "trial": 60, "rt": 1564, "response": "Alpha"}, "61": {"stimulus": 62, "trial": 61, "rt": 1558, "response": "Alpha"}, "62": {"stimulus": 56, "trial": 62, "rt": 1906, "response": "Beta"}, "63": {"stimulus": 72, "trial": 63, "rt": 614, "response": "Alpha"}, "64": {"stimulus": 2, "trial": 64, "rt": 1207, "response": "Beta"}, "49": {"stimulus": 51, "trial": 49, "rt": 3607, "response": "Beta"}, "66": {"stimulus": 24, "trial": 66, "rt": 797, "response": "Beta"}, "67": {"stimulus": 64, "trial": 67, "rt": 1411, "response": "Alpha"}, "68": {"stimulus": 15, "trial": 68, "rt": 816, "response": "Beta"}, "69": {"stimulus": 52, "trial": 69, "rt": 1066, "response": "Beta"}, "80": {"stimulus": 37, "trial": 80, "rt": 1643, "response": "Alpha"}, "52": {"stimulus": 63, "trial": 52, "rt": 877, "response": "Alpha"}, "53": {"stimulus": 38, "trial": 53, "rt": 1012, "response": "Beta"}, "24": {"stimulus": 46, "trial": 24, "rt": 1590, "response": "Alpha"}, "25": {"stimulus": 53, "trial": 25, "rt": 1572, "response": "Alpha"}, "26": {"stimulus": 23, "trial": 26, "rt": 1206, "response": "Beta"}, "27": {"stimulus": 7, "trial": 27, "rt": 1061, "response": "Beta"}, "20": {"stimulus": 13, "trial": 20, "rt": 1080, "response": "Beta"}, "21": {"stimulus": 1, "trial": 21, "rt": 850, "response": "Alpha"}, "22": {"stimulus": 49, "trial": 22, "rt": 1009, "response": "Beta"}, "23": {"stimulus": 55, "trial": 23, "rt": 765, "response": "Alpha"}, "46": {"stimulus": 74, "trial": 46, "rt": 1277, "response": "Beta"}, "47": {"stimulus": 21, "trial": 47, "rt": 1006, "response": "Beta"}, "44": {"stimulus": 26, "trial": 44, "rt": 1429, "response": "Alpha"}, "45": {"stimulus": 20, "trial": 45, "rt": 1021, "response": "Beta"}, "28": {"stimulus": 12, "trial": 28, "rt": 1109, "response": "Beta"}, "29": {"stimulus": 40, "trial": 29, "rt": 1045, "response": "Beta"}, "40": {"stimulus": 33, "trial": 40, "rt": 902, "response": "Beta"}, "41": {"stimulus": 69, "trial": 41, "rt": 1466, "response": "Beta"}, "1": {"stimulus": 78, "trial": 1, "rt": 6667, "response": "Beta"}, "0": {"stimulus": 30, "trial": 0, "rt": 2468, "response": "Beta"}, "3": {"stimulus": 18, "trial": 3, "rt": 1336, "response": "Alpha"}, "2": {"stimulus": 8, "trial": 2, "rt": 1548, "response": "Alpha"}, "5": {"stimulus": 5, "trial": 5, "rt": 1416, "response": "Beta"}, "4": {"stimulus": 77, "trial": 4, "rt": 1785, "response": "Beta"}, "7": {"stimulus": 44, "trial": 7, "rt": 2068, "response": "Alpha"}, "6": {"stimulus": 42, "trial": 6, "rt": 1309, "response": "Beta"}, "9": {"stimulus": 67, "trial": 9, "rt": 1264, "response": "Beta"}, "8": {"stimulus": 76, "trial": 8, "rt": 1462, "response": "Beta"}, "78": {"stimulus": 57, "trial": 78, "rt": 883, "response": "Beta"}, "51": {"stimulus": 0, "trial": 51, "rt": 1122, "response": "Alpha"}, "39": {"stimulus": 16, "trial": 39, "rt": 1369, "response": "Beta"}, "65": {"stimulus": 31, "trial": 65, "rt": 936, "response": "Beta"}, "76": {"stimulus": 14, "trial": 76, "rt": 723, "response": "Beta"}, "75": {"stimulus": 22, "trial": 75, "rt": 736, "response": "Beta"}, "38": {"stimulus": 27, "trial": 38, "rt": 981, "response": "Alpha"}, "73": {"stimulus": 80, "trial": 73, "rt": 1092, "response": "Alpha"}, "72": {"stimulus": 54, "trial": 72, "rt": 894, "response": "Alpha"}, "71": {"stimulus": 4, "trial": 71, "rt": 898, "response": "Beta"}, "70": {"stimulus": 11, "trial": 70, "rt": 1136, "response": "Beta"}, "59": {"stimulus": 35, "trial": 59, "rt": 915, "response": "Alpha"}, "79": {"stimulus": 65, "trial": 79, "rt": 911, "response": "Beta"}, "58": {"stimulus": 29, "trial": 58, "rt": 1047, "response": "Beta"}, "11": {"stimulus": 58, "trial": 11, "rt": 1185, "response": "Beta"}, "10": {"stimulus": 48, "trial": 10, "rt": 1874, "response": "Beta"}, "13": {"stimulus": 68, "trial": 13, "rt": 984, "response": "Beta"}, "12": {"stimulus": 45, "trial": 12, "rt": 900, "response": "Alpha"}, "15": {"stimulus": 10, "trial": 15, "rt": 1081, "response": "Alpha"}, "14": {"stimulus": 79, "trial": 14, "rt": 12306, "response": "Alpha"}, "17": {"stimulus": 59, "trial": 17, "rt": 1404, "response": "Beta"}, "16": {"stimulus": 66, "trial": 16, "rt": 1109, "response": "Beta"}, "19": {"stimulus": 17, "trial": 19, "rt": 1230, "response": "Alpha"}, "18": {"stimulus": 0, "trial": 18, "rt": 986, "response": "Alpha"}, "31": {"stimulus": 3, "trial": 31, "rt": 1140, "response": "Beta"}, "30": {"stimulus": 9, "trial": 30, "rt": 1160, "response": "Alpha"}, "37": {"stimulus": 41, "trial": 37, "rt": 943, "response": "Beta"}, "36": {"stimulus": 32, "trial": 36, "rt": 1055, "response": "Beta"}, "35": {"stimulus": 75, "trial": 35, "rt": 1097, "response": "Beta"}, "34": {"stimulus": 19, "trial": 34, "rt": 1485, "response": "Alpha"}, "33": {"stimulus": 61, "trial": 33, "rt": 3392, "response": "Beta"}, "55": {"stimulus": 60, "trial": 55, "rt": 1279, "response": "Beta"}, "74": {"stimulus": 43, "trial": 74, "rt": 750, "response": "Beta"}, "32": {"stimulus": 36, "trial": 32, "rt": 1632, "response": "Alpha"}, "57": {"stimulus": 70, "trial": 57, "rt": 1687, "response": "Beta"}, "50": {"stimulus": 28, "trial": 50, "rt": 1889, "response": "Alpha"}}, "experiment": {"Paradigm": "TACL", "Stimuli": "Size-Color Squares and Size-Orientation Circles", "Experiment": "Generating-Multiple-Categories"}, "submit": {"timeTotal": 906211, "age": "32", "comments": "", "sex": "male"}}