{"info": {"finish": 1554541631636, "participant": 110, "exposed": true, "lab": false, "start": 1554540906625, "counterbalance": 3, "stimtype": "Circles", "gentype": 1, "condition": "Corner_C", "browser": {"platform": "Win32", "userAgent": "Mozilla/5.0 (Windows NT 10.0; Win64; x64) AppleWebKit/537.36 (KHTML, like Gecko) Chrome/73.0.3683.86 Safari/537.36"}}, "observation": {"11": {"stimulus": 0, "trial": 11, "rt": 1611}, "10": {"stimulus": 72, "trial": 10, "rt": 1816}, "1": {"stimulus": 80, "trial": 1, "rt": 2050}, "0": {"stimulus": 8, "trial": 0, "rt": 2546}, "3": {"stimulus": 0, "trial": 3, "rt": 1473}, "2": {"stimulus": 72, "trial": 2, "rt": 1586}, "5": {"stimulus": 8, "trial": 5, "rt": 1656}, "4": {"stimulus": 0, "trial": 4, "rt": 1649}, "7": {"stimulus": 80, "trial": 7, "rt": 1445}, "6": {"stimulus": 72, "trial": 6, "rt": 1463}, "9": {"stimulus": 80, "trial": 9, "rt": 2039}, "8": {"stimulus": 8, "trial": 8, "rt": 1611}}, "generation": {"1": {"category": "Beta", "trial": 1, "stimulus": 36, "rt": 7650}, "0": {"category": "Beta", "trial": 0, "stimulus": 34, "rt": 17001}, "3": {"category": "Beta", "trial": 3, "stimulus": 35, "rt": 8219}, "2": {"category": "Beta", "trial": 2, "stimulus": 38, "rt": 5649}}, "generalization": {"56": {"stimulus": 79, "trial": 56, "rt": 1094, "response": "Alpha"}, "77": {"stimulus": 78, "trial": 77, "rt": 703, "response": "Alpha"}, "54": {"stimulus": 5, "trial": 54, "rt": 1295, "response": "Alpha"}, "42": {"stimulus": 19, "trial": 42, "rt": 855, "response": "Beta"}, "48": {"stimulus": 65, "trial": 48, "rt": 866, "response": "Alpha"}, "43": {"stimulus": 52, "trial": 43, "rt": 1081, "response": "Alpha"}, "60": {"stimulus": 31, "trial": 60, "rt": 1339, "response": "Beta"}, "61": {"stimulus": 44, "trial": 61, "rt": 992, "response": "Beta"}, "62": {"stimulus": 24, "trial": 62, "rt": 2154, "response": "Beta"}, "63": {"stimulus": 57, "trial": 63, "rt": 2698, "response": "Alpha"}, "64": {"stimulus": 26, "trial": 64, "rt": 5515, "response": "Beta"}, "49": {"stimulus": 35, "trial": 49, "rt": 868, "response": "Beta"}, "66": {"stimulus": 9, "trial": 66, "rt": 2067, "response": "Beta"}, "67": {"stimulus": 17, "trial": 67, "rt": 844, "response": "Beta"}, "68": {"stimulus": 63, "trial": 68, "rt": 3057, "response": "Alpha"}, "69": {"stimulus": 4, "trial": 69, "rt": 5771, "response": "Alpha"}, "80": {"stimulus": 43, "trial": 80, "rt": 571, "response": "Beta"}, "52": {"stimulus": 55, "trial": 52, "rt": 974, "response": "Alpha"}, "53": {"stimulus": 49, "trial": 53, "rt": 1116, "response": "Alpha"}, "24": {"stimulus": 48, "trial": 24, "rt": 1852, "response": "Alpha"}, "25": {"stimulus": 42, "trial": 25, "rt": 913, "response": "Beta"}, "26": {"stimulus": 13, "trial": 26, "rt": 1062, "response": "Beta"}, "27": {"stimulus": 11, "trial": 27, "rt": 574, "response": "Beta"}, "20": {"stimulus": 70, "trial": 20, "rt": 832, "response": "Alpha"}, "21": {"stimulus": 3, "trial": 21, "rt": 809, "response": "Alpha"}, "22": {"stimulus": 20, "trial": 22, "rt": 737, "response": "Beta"}, "23": {"stimulus": 30, "trial": 23, "rt": 757, "response": "Beta"}, "46": {"stimulus": 67, "trial": 46, "rt": 895, "response": "Alpha"}, "47": {"stimulus": 41, "trial": 47, "rt": 874, "response": "Beta"}, "44": {"stimulus": 27, "trial": 44, "rt": 851, "response": "Beta"}, "45": {"stimulus": 10, "trial": 45, "rt": 646, "response": "Beta"}, "28": {"stimulus": 0, "trial": 28, "rt": 860, "response": "Alpha"}, "29": {"stimulus": 72, "trial": 29, "rt": 636, "response": "Alpha"}, "40": {"stimulus": 34, "trial": 40, "rt": 859, "response": "Beta"}, "41": {"stimulus": 45, "trial": 41, "rt": 1267, "response": "Alpha"}, "1": {"stimulus": 16, "trial": 1, "rt": 1947, "response": "Alpha"}, "0": {"stimulus": 36, "trial": 0, "rt": 1082, "response": "Beta"}, "3": {"stimulus": 73, "trial": 3, "rt": 1196, "response": "Alpha"}, "2": {"stimulus": 71, "trial": 2, "rt": 1233, "response": "Alpha"}, "5": {"stimulus": 62, "trial": 5, "rt": 2952, "response": "Alpha"}, "4": {"stimulus": 38, "trial": 4, "rt": 881, "response": "Beta"}, "7": {"stimulus": 66, "trial": 7, "rt": 1665, "response": "Alpha"}, "6": {"stimulus": 29, "trial": 6, "rt": 1196, "response": "Beta"}, "9": {"stimulus": 51, "trial": 9, "rt": 1934, "response": "Beta"}, "8": {"stimulus": 32, "trial": 8, "rt": 691, "response": "Beta"}, "78": {"stimulus": 47, "trial": 78, "rt": 1810, "response": "Alpha"}, "51": {"stimulus": 37, "trial": 51, "rt": 904, "response": "Beta"}, "39": {"stimulus": 2, "trial": 39, "rt": 953, "response": "Alpha"}, "65": {"stimulus": 59, "trial": 65, "rt": 765, "response": "Alpha"}, "76": {"stimulus": 15, "trial": 76, "rt": 1173, "response": "Beta"}, "75": {"stimulus": 80, "trial": 75, "rt": 2463, "response": "Alpha"}, "38": {"stimulus": 40, "trial": 38, "rt": 763, "response": "Beta"}, "73": {"stimulus": 33, "trial": 73, "rt": 1195, "response": "Beta"}, "72": {"stimulus": 60, "trial": 72, "rt": 756, "response": "Alpha"}, "71": {"stimulus": 18, "trial": 71, "rt": 1566, "response": "Beta"}, "70": {"stimulus": 64, "trial": 70, "rt": 1234, "response": "Alpha"}, "59": {"stimulus": 69, "trial": 59, "rt": 1825, "response": "Alpha"}, "79": {"stimulus": 6, "trial": 79, "rt": 763, "response": "Alpha"}, "58": {"stimulus": 75, "trial": 58, "rt": 669, "response": "Alpha"}, "11": {"stimulus": 1, "trial": 11, "rt": 1056, "response": "Alpha"}, "10": {"stimulus": 22, "trial": 10, "rt": 874, "response": "Beta"}, "13": {"stimulus": 0, "trial": 13, "rt": 1221, "response": "Alpha"}, "12": {"stimulus": 46, "trial": 12, "rt": 2339, "response": "Alpha"}, "15": {"stimulus": 77, "trial": 15, "rt": 580, "response": "Alpha"}, "14": {"stimulus": 76, "trial": 14, "rt": 714, "response": "Alpha"}, "17": {"stimulus": 68, "trial": 17, "rt": 878, "response": "Alpha"}, "16": {"stimulus": 21, "trial": 16, "rt": 1143, "response": "Beta"}, "19": {"stimulus": 23, "trial": 19, "rt": 588, "response": "Beta"}, "18": {"stimulus": 56, "trial": 18, "rt": 788, "response": "Alpha"}, "31": {"stimulus": 25, "trial": 31, "rt": 820, "response": "Beta"}, "30": {"stimulus": 61, "trial": 30, "rt": 648, "response": "Alpha"}, "37": {"stimulus": 50, "trial": 37, "rt": 1315, "response": "Alpha"}, "36": {"stimulus": 54, "trial": 36, "rt": 730, "response": "Alpha"}, "35": {"stimulus": 53, "trial": 35, "rt": 1052, "response": "Alpha"}, "34": {"stimulus": 28, "trial": 34, "rt": 800, "response": "Beta"}, "33": {"stimulus": 58, "trial": 33, "rt": 669, "response": "Alpha"}, "55": {"stimulus": 12, "trial": 55, "rt": 963, "response": "Beta"}, "74": {"stimulus": 14, "trial": 74, "rt": 3322, "response": "Beta"}, "32": {"stimulus": 8, "trial": 32, "rt": 1270, "response": "Alpha"}, "57": {"stimulus": 7, "trial": 57, "rt": 995, "response": "Alpha"}, "50": {"stimulus": 74, "trial": 50, "rt": 863, "response": "Alpha"}}, "experiment": {"Paradigm": "TACL", "Stimuli": "Size-Color Squares and Size-Orientation Circles", "Experiment": "Generating-Multiple-Categories"}, "submit": {"timeTotal": 725525, "age": "36", "comments": "Everything was very easy to understand. ", "sex": "Female"}}