{"info": {"finish": 1554542194119, "participant": 111, "exposed": true, "lab": false, "start": 1554541920123, "counterbalance": 6, "stimtype": "Circles", "gentype": 1, "condition": "Corner_C", "browser": {"platform": "Win32", "userAgent": "Mozilla/5.0 (Windows NT 10.0; Win64; x64) AppleWebKit/537.36 (KHTML, like Gecko) Chrome/73.0.3683.86 Safari/537.36"}}, "observation": {"11": {"stimulus": 0, "trial": 11, "rt": 1527}, "10": {"stimulus": 8, "trial": 10, "rt": 1594}, "1": {"stimulus": 0, "trial": 1, "rt": 2214}, "0": {"stimulus": 72, "trial": 0, "rt": 2667}, "3": {"stimulus": 8, "trial": 3, "rt": 2118}, "2": {"stimulus": 80, "trial": 2, "rt": 2141}, "5": {"stimulus": 0, "trial": 5, "rt": 1597}, "4": {"stimulus": 8, "trial": 4, "rt": 1661}, "7": {"stimulus": 72, "trial": 7, "rt": 3434}, "6": {"stimulus": 80, "trial": 6, "rt": 1629}, "9": {"stimulus": 80, "trial": 9, "rt": 2111}, "8": {"stimulus": 72, "trial": 8, "rt": 1558}}, "generation": {"1": {"category": "Beta", "trial": 1, "stimulus": 60, "rt": 7250}, "0": {"category": "Beta", "trial": 0, "stimulus": 49, "rt": 16752}, "3": {"category": "Beta", "trial": 3, "stimulus": 50, "rt": 11353}, "2": {"category": "Beta", "trial": 2, "stimulus": 58, "rt": 9007}}, "generalization": {"56": {"stimulus": 16, "trial": 56, "rt": 1000, "response": "Beta"}, "77": {"stimulus": 43, "trial": 77, "rt": 1118, "response": "Alpha"}, "54": {"stimulus": 57, "trial": 54, "rt": 1096, "response": "Alpha"}, "42": {"stimulus": 22, "trial": 42, "rt": 3205, "response": "Alpha"}, "48": {"stimulus": 65, "trial": 48, "rt": 1017, "response": "Alpha"}, "43": {"stimulus": 31, "trial": 43, "rt": 2036, "response": "Beta"}, "60": {"stimulus": 68, "trial": 60, "rt": 848, "response": "Beta"}, "61": {"stimulus": 59, "trial": 61, "rt": 904, "response": "Beta"}, "62": {"stimulus": 66, "trial": 62, "rt": 1122, "response": "Alpha"}, "63": {"stimulus": 78, "trial": 63, "rt": 923, "response": "Beta"}, "64": {"stimulus": 30, "trial": 64, "rt": 1059, "response": "Alpha"}, "49": {"stimulus": 70, "trial": 49, "rt": 1149, "response": "Beta"}, "66": {"stimulus": 24, "trial": 66, "rt": 676, "response": "Beta"}, "67": {"stimulus": 48, "trial": 67, "rt": 1253, "response": "Alpha"}, "68": {"stimulus": 47, "trial": 68, "rt": 4589, "response": "Alpha"}, "69": {"stimulus": 17, "trial": 69, "rt": 748, "response": "Alpha"}, "80": {"stimulus": 45, "trial": 80, "rt": 759, "response": "Alpha"}, "52": {"stimulus": 62, "trial": 52, "rt": 888, "response": "Alpha"}, "53": {"stimulus": 54, "trial": 53, "rt": 732, "response": "Alpha"}, "24": {"stimulus": 61, "trial": 24, "rt": 1041, "response": "Beta"}, "25": {"stimulus": 35, "trial": 25, "rt": 1339, "response": "Alpha"}, "26": {"stimulus": 75, "trial": 26, "rt": 1159, "response": "Beta"}, "27": {"stimulus": 60, "trial": 27, "rt": 1004, "response": "Beta"}, "20": {"stimulus": 2, "trial": 20, "rt": 1039, "response": "Alpha"}, "21": {"stimulus": 5, "trial": 21, "rt": 1299, "response": "Beta"}, "22": {"stimulus": 13, "trial": 22, "rt": 1166, "response": "Beta"}, "23": {"stimulus": 79, "trial": 23, "rt": 1125, "response": "Beta"}, "46": {"stimulus": 15, "trial": 46, "rt": 936, "response": "Beta"}, "47": {"stimulus": 3, "trial": 47, "rt": 1130, "response": "Alpha"}, "44": {"stimulus": 40, "trial": 44, "rt": 655, "response": "Beta"}, "45": {"stimulus": 71, "trial": 45, "rt": 1345, "response": "Alpha"}, "28": {"stimulus": 7, "trial": 28, "rt": 853, "response": "Beta"}, "29": {"stimulus": 33, "trial": 29, "rt": 793, "response": "Beta"}, "40": {"stimulus": 67, "trial": 40, "rt": 1435, "response": "Alpha"}, "41": {"stimulus": 51, "trial": 41, "rt": 1100, "response": "Beta"}, "1": {"stimulus": 1, "trial": 1, "rt": 713, "response": "Alpha"}, "0": {"stimulus": 28, "trial": 0, "rt": 2884, "response": "Alpha"}, "3": {"stimulus": 0, "trial": 3, "rt": 1014, "response": "Alpha"}, "2": {"stimulus": 53, "trial": 2, "rt": 1290, "response": "Alpha"}, "5": {"stimulus": 21, "trial": 5, "rt": 1240, "response": "Beta"}, "4": {"stimulus": 64, "trial": 4, "rt": 1422, "response": "Beta"}, "7": {"stimulus": 76, "trial": 7, "rt": 968, "response": "Beta"}, "6": {"stimulus": 9, "trial": 6, "rt": 910, "response": "Alpha"}, "9": {"stimulus": 73, "trial": 9, "rt": 888, "response": "Alpha"}, "8": {"stimulus": 72, "trial": 8, "rt": 879, "response": "Alpha"}, "78": {"stimulus": 26, "trial": 78, "rt": 817, "response": "Alpha"}, "51": {"stimulus": 10, "trial": 51, "rt": 859, "response": "Alpha"}, "39": {"stimulus": 63, "trial": 39, "rt": 1182, "response": "Alpha"}, "65": {"stimulus": 69, "trial": 65, "rt": 982, "response": "Beta"}, "76": {"stimulus": 80, "trial": 76, "rt": 955, "response": "Alpha"}, "75": {"stimulus": 49, "trial": 75, "rt": 745, "response": "Beta"}, "38": {"stimulus": 6, "trial": 38, "rt": 1020, "response": "Beta"}, "73": {"stimulus": 42, "trial": 73, "rt": 1452, "response": "Beta"}, "72": {"stimulus": 0, "trial": 72, "rt": 818, "response": "Alpha"}, "71": {"stimulus": 23, "trial": 71, "rt": 1053, "response": "Beta"}, "70": {"stimulus": 36, "trial": 70, "rt": 945, "response": "Alpha"}, "59": {"stimulus": 77, "trial": 59, "rt": 963, "response": "Beta"}, "79": {"stimulus": 44, "trial": 79, "rt": 775, "response": "Alpha"}, "58": {"stimulus": 46, "trial": 58, "rt": 807, "response": "Alpha"}, "11": {"stimulus": 8, "trial": 11, "rt": 999, "response": "Alpha"}, "10": {"stimulus": 56, "trial": 10, "rt": 741, "response": "Alpha"}, "13": {"stimulus": 32, "trial": 13, "rt": 1167, "response": "Beta"}, "12": {"stimulus": 74, "trial": 12, "rt": 1066, "response": "Alpha"}, "15": {"stimulus": 41, "trial": 15, "rt": 1734, "response": "Beta"}, "14": {"stimulus": 19, "trial": 14, "rt": 765, "response": "Alpha"}, "17": {"stimulus": 27, "trial": 17, "rt": 754, "response": "Alpha"}, "16": {"stimulus": 34, "trial": 16, "rt": 1934, "response": "Alpha"}, "19": {"stimulus": 29, "trial": 19, "rt": 1889, "response": "Beta"}, "18": {"stimulus": 50, "trial": 18, "rt": 1149, "response": "Beta"}, "31": {"stimulus": 37, "trial": 31, "rt": 1391, "response": "Alpha"}, "30": {"stimulus": 20, "trial": 30, "rt": 1239, "response": "Alpha"}, "37": {"stimulus": 38, "trial": 37, "rt": 1048, "response": "Alpha"}, "36": {"stimulus": 4, "trial": 36, "rt": 712, "response": "Beta"}, "35": {"stimulus": 14, "trial": 35, "rt": 948, "response": "Beta"}, "34": {"stimulus": 58, "trial": 34, "rt": 1111, "response": "Beta"}, "33": {"stimulus": 18, "trial": 33, "rt": 887, "response": "Alpha"}, "55": {"stimulus": 12, "trial": 55, "rt": 859, "response": "Alpha"}, "74": {"stimulus": 52, "trial": 74, "rt": 926, "response": "Beta"}, "32": {"stimulus": 11, "trial": 32, "rt": 804, "response": "Alpha"}, "57": {"stimulus": 55, "trial": 57, "rt": 803, "response": "Alpha"}, "50": {"stimulus": 25, "trial": 50, "rt": 1215, "response": "Beta"}}, "experiment": {"Paradigm": "TACL", "Stimuli": "Size-Color Squares and Size-Orientation Circles", "Experiment": "Generating-Multiple-Categories"}, "submit": {"timeTotal": 274298, "age": "32", "comments": "good survey", "sex": "male"}}