{"info": {"finish": 1554542619829, "participant": 112, "exposed": true, "lab": false, "start": 1554541919603, "counterbalance": 2, "stimtype": "Squares", "gentype": 1, "condition": "Corner_S", "browser": {"platform": "Win32", "userAgent": "Mozilla/5.0 (Windows NT 6.1) AppleWebKit/537.36 (KHTML, like Gecko) Chrome/73.0.3683.86 Safari/537.36"}}, "observation": {"11": {"stimulus": 8, "trial": 11, "rt": 2005}, "10": {"stimulus": 80, "trial": 10, "rt": 3178}, "1": {"stimulus": 72, "trial": 1, "rt": 3713}, "0": {"stimulus": 0, "trial": 0, "rt": 5066}, "3": {"stimulus": 8, "trial": 3, "rt": 4220}, "2": {"stimulus": 80, "trial": 2, "rt": 3305}, "5": {"stimulus": 80, "trial": 5, "rt": 2048}, "4": {"stimulus": 72, "trial": 4, "rt": 11939}, "7": {"stimulus": 8, "trial": 7, "rt": 1698}, "6": {"stimulus": 0, "trial": 6, "rt": 1814}, "9": {"stimulus": 0, "trial": 9, "rt": 1718}, "8": {"stimulus": 72, "trial": 8, "rt": 1929}}, "generation": {"1": {"category": "Beta", "trial": 1, "stimulus": 14, "rt": 11489}, "0": {"category": "Beta", "trial": 0, "stimulus": 57, "rt": 12361}, "3": {"category": "Beta", "trial": 3, "stimulus": 38, "rt": 11828}, "2": {"category": "Beta", "trial": 2, "stimulus": 12, "rt": 12338}}, "generalization": {"56": {"stimulus": 75, "trial": 56, "rt": 701, "response": "Alpha"}, "77": {"stimulus": 11, "trial": 77, "rt": 378, "response": "Beta"}, "54": {"stimulus": 69, "trial": 54, "rt": 896, "response": "Alpha"}, "42": {"stimulus": 44, "trial": 42, "rt": 1059, "response": "Alpha"}, "48": {"stimulus": 10, "trial": 48, "rt": 896, "response": "Beta"}, "43": {"stimulus": 19, "trial": 43, "rt": 801, "response": "Beta"}, "60": {"stimulus": 64, "trial": 60, "rt": 981, "response": "Alpha"}, "61": {"stimulus": 79, "trial": 61, "rt": 674, "response": "Alpha"}, "62": {"stimulus": 6, "trial": 62, "rt": 647, "response": "Beta"}, "63": {"stimulus": 55, "trial": 63, "rt": 443, "response": "Alpha"}, "64": {"stimulus": 63, "trial": 64, "rt": 561, "response": "Alpha"}, "49": {"stimulus": 72, "trial": 49, "rt": 834, "response": "Alpha"}, "66": {"stimulus": 1, "trial": 66, "rt": 712, "response": "Beta"}, "67": {"stimulus": 9, "trial": 67, "rt": 1167, "response": "Beta"}, "68": {"stimulus": 25, "trial": 68, "rt": 1913, "response": "Beta"}, "69": {"stimulus": 2, "trial": 69, "rt": 1629, "response": "Beta"}, "80": {"stimulus": 36, "trial": 80, "rt": 811, "response": "Alpha"}, "52": {"stimulus": 80, "trial": 52, "rt": 2504, "response": "Alpha"}, "53": {"stimulus": 47, "trial": 53, "rt": 1668, "response": "Alpha"}, "24": {"stimulus": 78, "trial": 24, "rt": 402, "response": "Alpha"}, "25": {"stimulus": 48, "trial": 25, "rt": 516, "response": "Alpha"}, "26": {"stimulus": 62, "trial": 26, "rt": 980, "response": "Alpha"}, "27": {"stimulus": 45, "trial": 27, "rt": 1017, "response": "Alpha"}, "20": {"stimulus": 5, "trial": 20, "rt": 881, "response": "Beta"}, "21": {"stimulus": 34, "trial": 21, "rt": 679, "response": "Beta"}, "22": {"stimulus": 8, "trial": 22, "rt": 685, "response": "Beta"}, "23": {"stimulus": 59, "trial": 23, "rt": 620, "response": "Alpha"}, "46": {"stimulus": 68, "trial": 46, "rt": 498, "response": "Alpha"}, "47": {"stimulus": 38, "trial": 47, "rt": 744, "response": "Alpha"}, "44": {"stimulus": 67, "trial": 44, "rt": 682, "response": "Alpha"}, "45": {"stimulus": 49, "trial": 45, "rt": 655, "response": "Alpha"}, "28": {"stimulus": 43, "trial": 28, "rt": 583, "response": "Beta"}, "29": {"stimulus": 65, "trial": 29, "rt": 1122, "response": "Alpha"}, "40": {"stimulus": 73, "trial": 40, "rt": 759, "response": "Alpha"}, "41": {"stimulus": 32, "trial": 41, "rt": 217322, "response": "Beta"}, "1": {"stimulus": 37, "trial": 1, "rt": 1082, "response": "Beta"}, "0": {"stimulus": 71, "trial": 0, "rt": 1860, "response": "Alpha"}, "3": {"stimulus": 66, "trial": 3, "rt": 594, "response": "Alpha"}, "2": {"stimulus": 74, "trial": 2, "rt": 523, "response": "Alpha"}, "5": {"stimulus": 53, "trial": 5, "rt": 1408, "response": "Beta"}, "4": {"stimulus": 40, "trial": 4, "rt": 836, "response": "Beta"}, "7": {"stimulus": 27, "trial": 7, "rt": 751, "response": "Beta"}, "6": {"stimulus": 52, "trial": 6, "rt": 621, "response": "Alpha"}, "9": {"stimulus": 16, "trial": 9, "rt": 753, "response": "Beta"}, "8": {"stimulus": 3, "trial": 8, "rt": 768, "response": "Beta"}, "78": {"stimulus": 41, "trial": 78, "rt": 453, "response": "Beta"}, "51": {"stimulus": 57, "trial": 51, "rt": 1200, "response": "Alpha"}, "39": {"stimulus": 51, "trial": 39, "rt": 35662, "response": "Beta"}, "65": {"stimulus": 60, "trial": 65, "rt": 758, "response": "Alpha"}, "76": {"stimulus": 22, "trial": 76, "rt": 460, "response": "Beta"}, "75": {"stimulus": 17, "trial": 75, "rt": 968, "response": "Beta"}, "38": {"stimulus": 46, "trial": 38, "rt": 1797, "response": "Beta"}, "73": {"stimulus": 61, "trial": 73, "rt": 376, "response": "Alpha"}, "72": {"stimulus": 29, "trial": 72, "rt": 694, "response": "Beta"}, "71": {"stimulus": 18, "trial": 71, "rt": 605, "response": "Beta"}, "70": {"stimulus": 42, "trial": 70, "rt": 1263, "response": "Beta"}, "59": {"stimulus": 26, "trial": 59, "rt": 710, "response": "Beta"}, "79": {"stimulus": 15, "trial": 79, "rt": 776, "response": "Beta"}, "58": {"stimulus": 30, "trial": 58, "rt": 733, "response": "Beta"}, "11": {"stimulus": 35, "trial": 11, "rt": 1399, "response": "Beta"}, "10": {"stimulus": 58, "trial": 10, "rt": 473, "response": "Alpha"}, "13": {"stimulus": 0, "trial": 13, "rt": 3507, "response": "Beta"}, "12": {"stimulus": 7, "trial": 12, "rt": 930, "response": "Beta"}, "15": {"stimulus": 54, "trial": 15, "rt": 1024, "response": "Alpha"}, "14": {"stimulus": 31, "trial": 14, "rt": 1215, "response": "Beta"}, "17": {"stimulus": 24, "trial": 17, "rt": 954, "response": "Beta"}, "16": {"stimulus": 4, "trial": 16, "rt": 764, "response": "Beta"}, "19": {"stimulus": 33, "trial": 19, "rt": 683, "response": "Beta"}, "18": {"stimulus": 21, "trial": 18, "rt": 550, "response": "Beta"}, "31": {"stimulus": 23, "trial": 31, "rt": 1014, "response": "Beta"}, "30": {"stimulus": 56, "trial": 30, "rt": 1508, "response": "Alpha"}, "37": {"stimulus": 50, "trial": 37, "rt": 1087, "response": "Alpha"}, "36": {"stimulus": 14, "trial": 36, "rt": 64180, "response": "Beta"}, "35": {"stimulus": 77, "trial": 35, "rt": 964, "response": "Alpha"}, "34": {"stimulus": 76, "trial": 34, "rt": 808, "response": "Alpha"}, "33": {"stimulus": 0, "trial": 33, "rt": 896, "response": "Beta"}, "55": {"stimulus": 13, "trial": 55, "rt": 2388, "response": "Beta"}, "74": {"stimulus": 20, "trial": 74, "rt": 551, "response": "Beta"}, "32": {"stimulus": 70, "trial": 32, "rt": 924, "response": "Alpha"}, "57": {"stimulus": 28, "trial": 57, "rt": 992, "response": "Beta"}, "50": {"stimulus": 12, "trial": 50, "rt": 2145, "response": "Beta"}}, "experiment": {"Paradigm": "TACL", "Stimuli": "Size-Color Squares and Size-Orientation Circles", "Experiment": "Generating-Multiple-Categories"}, "submit": {"timeTotal": 701440, "age": "35", "comments": "nice", "sex": "female"}}