{"info": {"finish": 1554542281595, "participant": 113, "exposed": true, "lab": false, "start": 1554541960357, "counterbalance": 4, "stimtype": "Squares", "gentype": 1, "condition": "Corner_S", "browser": {"platform": "Win32", "userAgent": "Mozilla/5.0 (Windows NT 6.3; Win64; x64) AppleWebKit/537.36 (KHTML, like Gecko) Chrome/72.0.3626.121 Safari/537.36"}}, "observation": {"11": {"stimulus": 80, "trial": 11, "rt": 2768}, "10": {"stimulus": 8, "trial": 10, "rt": 3210}, "1": {"stimulus": 8, "trial": 1, "rt": 2735}, "0": {"stimulus": 80, "trial": 0, "rt": 3717}, "3": {"stimulus": 0, "trial": 3, "rt": 2171}, "2": {"stimulus": 72, "trial": 2, "rt": 3658}, "5": {"stimulus": 8, "trial": 5, "rt": 2469}, "4": {"stimulus": 0, "trial": 4, "rt": 2313}, "7": {"stimulus": 72, "trial": 7, "rt": 2874}, "6": {"stimulus": 80, "trial": 6, "rt": 2297}, "9": {"stimulus": 0, "trial": 9, "rt": 2142}, "8": {"stimulus": 72, "trial": 8, "rt": 1906}}, "generation": {"1": {"category": "Beta", "trial": 1, "stimulus": 30, "rt": 6486}, "0": {"category": "Beta", "trial": 0, "stimulus": 60, "rt": 7026}, "3": {"category": "Beta", "trial": 3, "stimulus": 64, "rt": 5052}, "2": {"category": "Beta", "trial": 2, "stimulus": 57, "rt": 5938}}, "generalization": {"56": {"stimulus": 68, "trial": 56, "rt": 1270, "response": "Alpha"}, "77": {"stimulus": 43, "trial": 77, "rt": 1148, "response": "Alpha"}, "54": {"stimulus": 8, "trial": 54, "rt": 1168, "response": "Alpha"}, "42": {"stimulus": 51, "trial": 42, "rt": 1059, "response": "Alpha"}, "48": {"stimulus": 29, "trial": 48, "rt": 1316, "response": "Beta"}, "43": {"stimulus": 3, "trial": 43, "rt": 1597, "response": "Beta"}, "60": {"stimulus": 45, "trial": 60, "rt": 1598, "response": "Beta"}, "61": {"stimulus": 10, "trial": 61, "rt": 1540, "response": "Beta"}, "62": {"stimulus": 1, "trial": 62, "rt": 1388, "response": "Beta"}, "63": {"stimulus": 64, "trial": 63, "rt": 923, "response": "Alpha"}, "64": {"stimulus": 33, "trial": 64, "rt": 917, "response": "Alpha"}, "49": {"stimulus": 19, "trial": 49, "rt": 1520, "response": "Beta"}, "66": {"stimulus": 78, "trial": 66, "rt": 1219, "response": "Alpha"}, "67": {"stimulus": 30, "trial": 67, "rt": 1831, "response": "Beta"}, "68": {"stimulus": 4, "trial": 68, "rt": 1145, "response": "Alpha"}, "69": {"stimulus": 53, "trial": 69, "rt": 1430, "response": "Alpha"}, "80": {"stimulus": 32, "trial": 80, "rt": 1209, "response": "Alpha"}, "52": {"stimulus": 59, "trial": 52, "rt": 1542, "response": "Alpha"}, "53": {"stimulus": 72, "trial": 53, "rt": 1676, "response": "Beta"}, "24": {"stimulus": 15, "trial": 24, "rt": 1126, "response": "Alpha"}, "25": {"stimulus": 34, "trial": 25, "rt": 947, "response": "Alpha"}, "26": {"stimulus": 63, "trial": 26, "rt": 1390, "response": "Beta"}, "27": {"stimulus": 61, "trial": 27, "rt": 1063, "response": "Alpha"}, "20": {"stimulus": 2, "trial": 20, "rt": 1569, "response": "Beta"}, "21": {"stimulus": 66, "trial": 21, "rt": 828, "response": "Alpha"}, "22": {"stimulus": 76, "trial": 22, "rt": 1048, "response": "Alpha"}, "23": {"stimulus": 58, "trial": 23, "rt": 3501, "response": "Alpha"}, "46": {"stimulus": 7, "trial": 46, "rt": 1141, "response": "Alpha"}, "47": {"stimulus": 71, "trial": 47, "rt": 997, "response": "Alpha"}, "44": {"stimulus": 47, "trial": 44, "rt": 1561, "response": "Beta"}, "45": {"stimulus": 69, "trial": 45, "rt": 1107, "response": "Alpha"}, "28": {"stimulus": 70, "trial": 28, "rt": 1095, "response": "Alpha"}, "29": {"stimulus": 20, "trial": 29, "rt": 1633, "response": "Beta"}, "40": {"stimulus": 60, "trial": 40, "rt": 1061, "response": "Alpha"}, "41": {"stimulus": 65, "trial": 41, "rt": 1647, "response": "Beta"}, "1": {"stimulus": 48, "trial": 1, "rt": 2473, "response": "Beta"}, "0": {"stimulus": 25, "trial": 0, "rt": 3135, "response": "Alpha"}, "3": {"stimulus": 52, "trial": 3, "rt": 1037, "response": "Alpha"}, "2": {"stimulus": 23, "trial": 2, "rt": 878, "response": "Alpha"}, "5": {"stimulus": 57, "trial": 5, "rt": 1681, "response": "Beta"}, "4": {"stimulus": 5, "trial": 4, "rt": 1131, "response": "Alpha"}, "7": {"stimulus": 73, "trial": 7, "rt": 2012, "response": "Alpha"}, "6": {"stimulus": 26, "trial": 6, "rt": 805, "response": "Alpha"}, "9": {"stimulus": 46, "trial": 9, "rt": 2300, "response": "Alpha"}, "8": {"stimulus": 49, "trial": 8, "rt": 977, "response": "Alpha"}, "78": {"stimulus": 18, "trial": 78, "rt": 1536, "response": "Beta"}, "51": {"stimulus": 79, "trial": 51, "rt": 1056, "response": "Alpha"}, "39": {"stimulus": 42, "trial": 39, "rt": 1127, "response": "Alpha"}, "65": {"stimulus": 67, "trial": 65, "rt": 1149, "response": "Alpha"}, "76": {"stimulus": 37, "trial": 76, "rt": 1550, "response": "Beta"}, "75": {"stimulus": 41, "trial": 75, "rt": 1008, "response": "Alpha"}, "38": {"stimulus": 38, "trial": 38, "rt": 1511, "response": "Beta"}, "73": {"stimulus": 12, "trial": 73, "rt": 1605, "response": "Beta"}, "72": {"stimulus": 17, "trial": 72, "rt": 1158, "response": "Alpha"}, "71": {"stimulus": 0, "trial": 71, "rt": 1608, "response": "Beta"}, "70": {"stimulus": 13, "trial": 70, "rt": 1958, "response": "Alpha"}, "59": {"stimulus": 80, "trial": 59, "rt": 1195, "response": "Alpha"}, "79": {"stimulus": 40, "trial": 79, "rt": 925, "response": "Alpha"}, "58": {"stimulus": 75, "trial": 58, "rt": 878, "response": "Alpha"}, "11": {"stimulus": 55, "trial": 11, "rt": 1386, "response": "Beta"}, "10": {"stimulus": 35, "trial": 10, "rt": 1027, "response": "Alpha"}, "13": {"stimulus": 27, "trial": 13, "rt": 1638, "response": "Beta"}, "12": {"stimulus": 62, "trial": 12, "rt": 970, "response": "Alpha"}, "15": {"stimulus": 0, "trial": 15, "rt": 1507, "response": "Beta"}, "14": {"stimulus": 21, "trial": 14, "rt": 955, "response": "Alpha"}, "17": {"stimulus": 9, "trial": 17, "rt": 1500, "response": "Beta"}, "16": {"stimulus": 36, "trial": 16, "rt": 770, "response": "Alpha"}, "19": {"stimulus": 24, "trial": 19, "rt": 1109, "response": "Alpha"}, "18": {"stimulus": 16, "trial": 18, "rt": 970, "response": "Alpha"}, "31": {"stimulus": 56, "trial": 31, "rt": 967, "response": "Alpha"}, "30": {"stimulus": 50, "trial": 30, "rt": 1280, "response": "Alpha"}, "37": {"stimulus": 77, "trial": 37, "rt": 961, "response": "Alpha"}, "36": {"stimulus": 54, "trial": 36, "rt": 1373, "response": "Beta"}, "35": {"stimulus": 14, "trial": 35, "rt": 988, "response": "Alpha"}, "34": {"stimulus": 31, "trial": 34, "rt": 950, "response": "Alpha"}, "33": {"stimulus": 11, "trial": 33, "rt": 1581, "response": "Beta"}, "55": {"stimulus": 22, "trial": 55, "rt": 1032, "response": "Alpha"}, "74": {"stimulus": 44, "trial": 74, "rt": 997, "response": "Alpha"}, "32": {"stimulus": 28, "trial": 32, "rt": 1120, "response": "Beta"}, "57": {"stimulus": 74, "trial": 57, "rt": 1607, "response": "Beta"}, "50": {"stimulus": 6, "trial": 50, "rt": 887, "response": "Alpha"}}, "experiment": {"Paradigm": "TACL", "Stimuli": "Size-Color Squares and Size-Orientation Circles", "Experiment": "Generating-Multiple-Categories"}, "submit": {"timeTotal": 321394, "age": "37", "comments": "great", "sex": "female"}}