{"info": {"finish": 1554542505175, "participant": 114, "exposed": true, "lab": false, "start": 1554542203517, "counterbalance": 1, "stimtype": "Squares", "gentype": 1, "condition": "Corner_S", "browser": {"platform": "Win32", "userAgent": "Mozilla/5.0 (Windows NT 10.0; Win64; x64) AppleWebKit/537.36 (KHTML, like Gecko) Chrome/72.0.3626.121 Safari/537.36"}}, "observation": {"11": {"stimulus": 0, "trial": 11, "rt": 1591}, "10": {"stimulus": 80, "trial": 10, "rt": 2103}, "1": {"stimulus": 8, "trial": 1, "rt": 1775}, "0": {"stimulus": 0, "trial": 0, "rt": 2007}, "3": {"stimulus": 72, "trial": 3, "rt": 3919}, "2": {"stimulus": 80, "trial": 2, "rt": 2142}, "5": {"stimulus": 0, "trial": 5, "rt": 2071}, "4": {"stimulus": 8, "trial": 4, "rt": 2078}, "7": {"stimulus": 80, "trial": 7, "rt": 1480}, "6": {"stimulus": 72, "trial": 6, "rt": 1607}, "9": {"stimulus": 8, "trial": 9, "rt": 3150}, "8": {"stimulus": 72, "trial": 8, "rt": 1462}}, "generation": {"1": {"category": "Beta", "trial": 1, "stimulus": 5, "rt": 7030}, "0": {"category": "Beta", "trial": 0, "stimulus": 21, "rt": 72231}, "3": {"category": "Beta", "trial": 3, "stimulus": 63, "rt": 7623}, "2": {"category": "Beta", "trial": 2, "stimulus": 65, "rt": 6014}}, "generalization": {"56": {"stimulus": 2, "trial": 56, "rt": 616, "response": "Beta"}, "77": {"stimulus": 72, "trial": 77, "rt": 655, "response": "Beta"}, "54": {"stimulus": 77, "trial": 54, "rt": 519, "response": "Alpha"}, "42": {"stimulus": 9, "trial": 42, "rt": 839, "response": "Beta"}, "48": {"stimulus": 76, "trial": 48, "rt": 663, "response": "Alpha"}, "43": {"stimulus": 26, "trial": 43, "rt": 799, "response": "Alpha"}, "60": {"stimulus": 49, "trial": 60, "rt": 3664, "response": "Beta"}, "61": {"stimulus": 71, "trial": 61, "rt": 895, "response": "Alpha"}, "62": {"stimulus": 6, "trial": 62, "rt": 751, "response": "Alpha"}, "63": {"stimulus": 50, "trial": 63, "rt": 517, "response": "Alpha"}, "64": {"stimulus": 47, "trial": 64, "rt": 1143, "response": "Beta"}, "49": {"stimulus": 46, "trial": 49, "rt": 504, "response": "Beta"}, "66": {"stimulus": 59, "trial": 66, "rt": 855, "response": "Alpha"}, "67": {"stimulus": 75, "trial": 67, "rt": 959, "response": "Beta"}, "68": {"stimulus": 38, "trial": 68, "rt": 1046, "response": "Beta"}, "69": {"stimulus": 52, "trial": 69, "rt": 711, "response": "Alpha"}, "80": {"stimulus": 69, "trial": 80, "rt": 816, "response": "Alpha"}, "52": {"stimulus": 45, "trial": 52, "rt": 894, "response": "Beta"}, "53": {"stimulus": 0, "trial": 53, "rt": 448, "response": "Beta"}, "24": {"stimulus": 60, "trial": 24, "rt": 741, "response": "Alpha"}, "25": {"stimulus": 41, "trial": 25, "rt": 760, "response": "Alpha"}, "26": {"stimulus": 10, "trial": 26, "rt": 911, "response": "Beta"}, "27": {"stimulus": 24, "trial": 27, "rt": 1447, "response": "Beta"}, "20": {"stimulus": 63, "trial": 20, "rt": 1078, "response": "Alpha"}, "21": {"stimulus": 36, "trial": 21, "rt": 637, "response": "Alpha"}, "22": {"stimulus": 80, "trial": 22, "rt": 1022, "response": "Alpha"}, "23": {"stimulus": 0, "trial": 23, "rt": 830, "response": "Beta"}, "46": {"stimulus": 34, "trial": 46, "rt": 671, "response": "Alpha"}, "47": {"stimulus": 7, "trial": 47, "rt": 542, "response": "Alpha"}, "44": {"stimulus": 56, "trial": 44, "rt": 807, "response": "Beta"}, "45": {"stimulus": 66, "trial": 45, "rt": 702, "response": "Beta"}, "28": {"stimulus": 51, "trial": 28, "rt": 760, "response": "Beta"}, "29": {"stimulus": 40, "trial": 29, "rt": 630, "response": "Alpha"}, "40": {"stimulus": 18, "trial": 40, "rt": 512, "response": "Beta"}, "41": {"stimulus": 21, "trial": 41, "rt": 1254, "response": "Alpha"}, "1": {"stimulus": 14, "trial": 1, "rt": 1029, "response": "Beta"}, "0": {"stimulus": 70, "trial": 0, "rt": 2183, "response": "Alpha"}, "3": {"stimulus": 67, "trial": 3, "rt": 790, "response": "Alpha"}, "2": {"stimulus": 3, "trial": 2, "rt": 1550, "response": "Beta"}, "5": {"stimulus": 43, "trial": 5, "rt": 534, "response": "Alpha"}, "4": {"stimulus": 35, "trial": 4, "rt": 1207, "response": "Alpha"}, "7": {"stimulus": 23, "trial": 7, "rt": 735, "response": "Alpha"}, "6": {"stimulus": 61, "trial": 6, "rt": 919, "response": "Alpha"}, "9": {"stimulus": 20, "trial": 9, "rt": 901, "response": "Beta"}, "8": {"stimulus": 11, "trial": 8, "rt": 1055, "response": "Beta"}, "78": {"stimulus": 37, "trial": 78, "rt": 559, "response": "Beta"}, "51": {"stimulus": 12, "trial": 51, "rt": 765, "response": "Alpha"}, "39": {"stimulus": 65, "trial": 39, "rt": 1208, "response": "Beta"}, "65": {"stimulus": 25, "trial": 65, "rt": 719, "response": "Alpha"}, "76": {"stimulus": 57, "trial": 76, "rt": 775, "response": "Beta"}, "75": {"stimulus": 13, "trial": 75, "rt": 591, "response": "Beta"}, "38": {"stimulus": 27, "trial": 38, "rt": 703, "response": "Beta"}, "73": {"stimulus": 22, "trial": 73, "rt": 1376, "response": "Alpha"}, "72": {"stimulus": 53, "trial": 72, "rt": 645, "response": "Alpha"}, "71": {"stimulus": 55, "trial": 71, "rt": 831, "response": "Beta"}, "70": {"stimulus": 8, "trial": 70, "rt": 455, "response": "Alpha"}, "59": {"stimulus": 64, "trial": 59, "rt": 519, "response": "Beta"}, "79": {"stimulus": 29, "trial": 79, "rt": 661, "response": "Beta"}, "58": {"stimulus": 4, "trial": 58, "rt": 854, "response": "Beta"}, "11": {"stimulus": 28, "trial": 11, "rt": 751, "response": "Beta"}, "10": {"stimulus": 54, "trial": 10, "rt": 903, "response": "Beta"}, "13": {"stimulus": 30, "trial": 13, "rt": 1112, "response": "Alpha"}, "12": {"stimulus": 33, "trial": 12, "rt": 759, "response": "Alpha"}, "15": {"stimulus": 48, "trial": 15, "rt": 1296, "response": "Alpha"}, "14": {"stimulus": 1, "trial": 14, "rt": 2253, "response": "Beta"}, "17": {"stimulus": 42, "trial": 17, "rt": 1510, "response": "Alpha"}, "16": {"stimulus": 78, "trial": 16, "rt": 767, "response": "Alpha"}, "19": {"stimulus": 5, "trial": 19, "rt": 872, "response": "Alpha"}, "18": {"stimulus": 79, "trial": 18, "rt": 711, "response": "Alpha"}, "31": {"stimulus": 74, "trial": 31, "rt": 1031, "response": "Beta"}, "30": {"stimulus": 15, "trial": 30, "rt": 735, "response": "Alpha"}, "37": {"stimulus": 31, "trial": 37, "rt": 646, "response": "Alpha"}, "36": {"stimulus": 73, "trial": 36, "rt": 934, "response": "Alpha"}, "35": {"stimulus": 68, "trial": 35, "rt": 2070, "response": "Alpha"}, "34": {"stimulus": 17, "trial": 34, "rt": 824, "response": "Beta"}, "33": {"stimulus": 62, "trial": 33, "rt": 751, "response": "Beta"}, "55": {"stimulus": 19, "trial": 55, "rt": 631, "response": "Beta"}, "74": {"stimulus": 32, "trial": 74, "rt": 902, "response": "Beta"}, "32": {"stimulus": 16, "trial": 32, "rt": 1013, "response": "Beta"}, "57": {"stimulus": 58, "trial": 57, "rt": 632, "response": "Beta"}, "50": {"stimulus": 44, "trial": 50, "rt": 663, "response": "Alpha"}}, "experiment": {"Paradigm": "TACL", "Stimuli": "Size-Color Squares and Size-Orientation Circles", "Experiment": "Generating-Multiple-Categories"}, "submit": {"timeTotal": 302210, "age": "31", "comments": "", "sex": "male"}}