{"info": {"finish": 1554543430927, "participant": 115, "exposed": true, "lab": false, "start": 1554542448835, "counterbalance": 3, "stimtype": "Circles", "gentype": 1, "condition": "Corner_C", "browser": {"platform": "Win32", "userAgent": "Mozilla/5.0 (Windows NT 6.1) AppleWebKit/537.36 (KHTML, like Gecko) Chrome/73.0.3683.86 Safari/537.36"}}, "observation": {"11": {"stimulus": 8, "trial": 11, "rt": 2207}, "10": {"stimulus": 72, "trial": 10, "rt": 1997}, "1": {"stimulus": 0, "trial": 1, "rt": 1335}, "0": {"stimulus": 8, "trial": 0, "rt": 6273}, "3": {"stimulus": 72, "trial": 3, "rt": 1893}, "2": {"stimulus": 80, "trial": 2, "rt": 2150}, "5": {"stimulus": 0, "trial": 5, "rt": 2535}, "4": {"stimulus": 80, "trial": 4, "rt": 1580}, "7": {"stimulus": 8, "trial": 7, "rt": 2159}, "6": {"stimulus": 72, "trial": 6, "rt": 1706}, "9": {"stimulus": 80, "trial": 9, "rt": 2109}, "8": {"stimulus": 0, "trial": 8, "rt": 5034}}, "generation": {"1": {"category": "Beta", "trial": 1, "stimulus": 1, "rt": 4405}, "0": {"category": "Beta", "trial": 0, "stimulus": 2, "rt": 5152}, "3": {"category": "Beta", "trial": 3, "stimulus": 11, "rt": 3871}, "2": {"category": "Beta", "trial": 2, "stimulus": 19, "rt": 11198}}, "generalization": {"56": {"stimulus": 40, "trial": 56, "rt": 926, "response": "Alpha"}, "77": {"stimulus": 2, "trial": 77, "rt": 608, "response": "Alpha"}, "54": {"stimulus": 5, "trial": 54, "rt": 357, "response": "Alpha"}, "42": {"stimulus": 43, "trial": 42, "rt": 885, "response": "Alpha"}, "48": {"stimulus": 14, "trial": 48, "rt": 434, "response": "Alpha"}, "43": {"stimulus": 69, "trial": 43, "rt": 775, "response": "Alpha"}, "60": {"stimulus": 51, "trial": 60, "rt": 5076, "response": "Alpha"}, "61": {"stimulus": 20, "trial": 61, "rt": 700, "response": "Alpha"}, "62": {"stimulus": 52, "trial": 62, "rt": 1929, "response": "Alpha"}, "63": {"stimulus": 35, "trial": 63, "rt": 485, "response": "Alpha"}, "64": {"stimulus": 66, "trial": 64, "rt": 5758, "response": "Alpha"}, "49": {"stimulus": 54, "trial": 49, "rt": 354, "response": "Alpha"}, "66": {"stimulus": 75, "trial": 66, "rt": 1649, "response": "Alpha"}, "67": {"stimulus": 65, "trial": 67, "rt": 457, "response": "Alpha"}, "68": {"stimulus": 71, "trial": 68, "rt": 1183, "response": "Alpha"}, "69": {"stimulus": 29, "trial": 69, "rt": 496, "response": "Alpha"}, "80": {"stimulus": 45, "trial": 80, "rt": 1042, "response": "Alpha"}, "52": {"stimulus": 4, "trial": 52, "rt": 416, "response": "Alpha"}, "53": {"stimulus": 30, "trial": 53, "rt": 429, "response": "Alpha"}, "24": {"stimulus": 26, "trial": 24, "rt": 442, "response": "Alpha"}, "25": {"stimulus": 3, "trial": 25, "rt": 1252, "response": "Alpha"}, "26": {"stimulus": 15, "trial": 26, "rt": 1016, "response": "Alpha"}, "27": {"stimulus": 8, "trial": 27, "rt": 455, "response": "Alpha"}, "20": {"stimulus": 61, "trial": 20, "rt": 3647, "response": "Alpha"}, "21": {"stimulus": 62, "trial": 21, "rt": 1704, "response": "Alpha"}, "22": {"stimulus": 6, "trial": 22, "rt": 457, "response": "Alpha"}, "23": {"stimulus": 25, "trial": 23, "rt": 460, "response": "Alpha"}, "46": {"stimulus": 64, "trial": 46, "rt": 451, "response": "Alpha"}, "47": {"stimulus": 38, "trial": 47, "rt": 395, "response": "Alpha"}, "44": {"stimulus": 74, "trial": 44, "rt": 629, "response": "Alpha"}, "45": {"stimulus": 28, "trial": 45, "rt": 423, "response": "Alpha"}, "28": {"stimulus": 24, "trial": 28, "rt": 974, "response": "Alpha"}, "29": {"stimulus": 9, "trial": 29, "rt": 1091, "response": "Alpha"}, "40": {"stimulus": 60, "trial": 40, "rt": 573, "response": "Alpha"}, "41": {"stimulus": 18, "trial": 41, "rt": 932, "response": "Alpha"}, "1": {"stimulus": 67, "trial": 1, "rt": 656, "response": "Beta"}, "0": {"stimulus": 23, "trial": 0, "rt": 1116, "response": "Alpha"}, "3": {"stimulus": 73, "trial": 3, "rt": 391, "response": "Alpha"}, "2": {"stimulus": 77, "trial": 2, "rt": 430, "response": "Alpha"}, "5": {"stimulus": 22, "trial": 5, "rt": 411, "response": "Alpha"}, "4": {"stimulus": 36, "trial": 4, "rt": 476, "response": "Alpha"}, "7": {"stimulus": 37, "trial": 7, "rt": 190, "response": "Alpha"}, "6": {"stimulus": 0, "trial": 6, "rt": 492, "response": "Alpha"}, "9": {"stimulus": 78, "trial": 9, "rt": 413, "response": "Alpha"}, "8": {"stimulus": 50, "trial": 8, "rt": 440, "response": "Alpha"}, "78": {"stimulus": 17, "trial": 78, "rt": 2876, "response": "Alpha"}, "51": {"stimulus": 11, "trial": 51, "rt": 474, "response": "Alpha"}, "39": {"stimulus": 57, "trial": 39, "rt": 590, "response": "Alpha"}, "65": {"stimulus": 70, "trial": 65, "rt": 3461, "response": "Alpha"}, "76": {"stimulus": 13, "trial": 76, "rt": 1126, "response": "Alpha"}, "75": {"stimulus": 72, "trial": 75, "rt": 489, "response": "Alpha"}, "38": {"stimulus": 49, "trial": 38, "rt": 407, "response": "Alpha"}, "73": {"stimulus": 46, "trial": 73, "rt": 410, "response": "Alpha"}, "72": {"stimulus": 80, "trial": 72, "rt": 604, "response": "Alpha"}, "71": {"stimulus": 19, "trial": 71, "rt": 543, "response": "Alpha"}, "70": {"stimulus": 31, "trial": 70, "rt": 474, "response": "Alpha"}, "59": {"stimulus": 63, "trial": 59, "rt": 1217, "response": "Alpha"}, "79": {"stimulus": 16, "trial": 79, "rt": 431, "response": "Alpha"}, "58": {"stimulus": 44, "trial": 58, "rt": 1225, "response": "Alpha"}, "11": {"stimulus": 34, "trial": 11, "rt": 404, "response": "Alpha"}, "10": {"stimulus": 33, "trial": 10, "rt": 387, "response": "Alpha"}, "13": {"stimulus": 42, "trial": 13, "rt": 447, "response": "Alpha"}, "12": {"stimulus": 58, "trial": 12, "rt": 401, "response": "Alpha"}, "15": {"stimulus": 27, "trial": 15, "rt": 981, "response": "Alpha"}, "14": {"stimulus": 12, "trial": 14, "rt": 447, "response": "Alpha"}, "17": {"stimulus": 48, "trial": 17, "rt": 428, "response": "Alpha"}, "16": {"stimulus": 41, "trial": 16, "rt": 388, "response": "Alpha"}, "19": {"stimulus": 55, "trial": 19, "rt": 1634, "response": "Alpha"}, "18": {"stimulus": 56, "trial": 18, "rt": 407, "response": "Alpha"}, "31": {"stimulus": 59, "trial": 31, "rt": 413, "response": "Alpha"}, "30": {"stimulus": 68, "trial": 30, "rt": 449, "response": "Alpha"}, "37": {"stimulus": 47, "trial": 37, "rt": 578, "response": "Alpha"}, "36": {"stimulus": 79, "trial": 36, "rt": 422, "response": "Alpha"}, "35": {"stimulus": 1, "trial": 35, "rt": 464, "response": "Alpha"}, "34": {"stimulus": 0, "trial": 34, "rt": 538, "response": "Alpha"}, "33": {"stimulus": 53, "trial": 33, "rt": 633, "response": "Alpha"}, "55": {"stimulus": 32, "trial": 55, "rt": 457, "response": "Alpha"}, "74": {"stimulus": 21, "trial": 74, "rt": 540, "response": "Alpha"}, "32": {"stimulus": 76, "trial": 32, "rt": 1651, "response": "Alpha"}, "57": {"stimulus": 7, "trial": 57, "rt": 1641, "response": "Alpha"}, "50": {"stimulus": 10, "trial": 50, "rt": 606, "response": "Alpha"}}, "experiment": {"Paradigm": "TACL", "Stimuli": "Size-Color Squares and Size-Orientation Circles", "Experiment": "Generating-Multiple-Categories"}, "submit": {"timeTotal": 982112, "age": "35", "comments": "nice", "sex": "female"}}