{"info": {"finish": 1554543106301, "participant": 116, "exposed": true, "lab": false, "start": 1554542515112, "counterbalance": 1, "stimtype": "Squares", "gentype": 1, "condition": "Corner_S", "browser": {"platform": "Win32", "userAgent": "Mozilla/5.0 (Windows NT 6.1; WOW64) AppleWebKit/537.36 (KHTML, like Gecko) Chrome/73.0.3683.86 Safari/537.36"}}, "observation": {"11": {"stimulus": 80, "trial": 11, "rt": 1811}, "10": {"stimulus": 0, "trial": 10, "rt": 2024}, "1": {"stimulus": 80, "trial": 1, "rt": 8646}, "0": {"stimulus": 72, "trial": 0, "rt": 10767}, "3": {"stimulus": 8, "trial": 3, "rt": 3187}, "2": {"stimulus": 0, "trial": 2, "rt": 2920}, "5": {"stimulus": 72, "trial": 5, "rt": 2544}, "4": {"stimulus": 80, "trial": 4, "rt": 1794}, "7": {"stimulus": 8, "trial": 7, "rt": 1959}, "6": {"stimulus": 0, "trial": 6, "rt": 2042}, "9": {"stimulus": 72, "trial": 9, "rt": 1857}, "8": {"stimulus": 8, "trial": 8, "rt": 1743}}, "generation": {"1": {"category": "Beta", "trial": 1, "stimulus": 73, "rt": 13966}, "0": {"category": "Beta", "trial": 0, "stimulus": 15, "rt": 18878}, "3": {"category": "Beta", "trial": 3, "stimulus": 80, "rt": 7717}, "2": {"category": "Beta", "trial": 2, "stimulus": 8, "rt": 12928}}, "generalization": {"56": {"stimulus": 73, "trial": 56, "rt": 1958, "response": "Alpha"}, "77": {"stimulus": 7, "trial": 77, "rt": 1478, "response": "Alpha"}, "54": {"stimulus": 37, "trial": 54, "rt": 3079, "response": "Beta"}, "42": {"stimulus": 63, "trial": 42, "rt": 3603, "response": "Alpha"}, "48": {"stimulus": 19, "trial": 48, "rt": 1367, "response": "Alpha"}, "43": {"stimulus": 78, "trial": 43, "rt": 1198, "response": "Alpha"}, "60": {"stimulus": 48, "trial": 60, "rt": 2365, "response": "Beta"}, "61": {"stimulus": 38, "trial": 61, "rt": 1488, "response": "Beta"}, "62": {"stimulus": 71, "trial": 62, "rt": 1642, "response": "Alpha"}, "63": {"stimulus": 30, "trial": 63, "rt": 5199, "response": "Beta"}, "64": {"stimulus": 5, "trial": 64, "rt": 2865, "response": "Alpha"}, "49": {"stimulus": 29, "trial": 49, "rt": 879, "response": "Alpha"}, "66": {"stimulus": 69, "trial": 66, "rt": 3687, "response": "Alpha"}, "67": {"stimulus": 49, "trial": 67, "rt": 7598, "response": "Beta"}, "68": {"stimulus": 74, "trial": 68, "rt": 4374, "response": "Alpha"}, "69": {"stimulus": 52, "trial": 69, "rt": 2502, "response": "Beta"}, "80": {"stimulus": 9, "trial": 80, "rt": 1198, "response": "Alpha"}, "52": {"stimulus": 17, "trial": 52, "rt": 1157, "response": "Alpha"}, "53": {"stimulus": 34, "trial": 53, "rt": 1416, "response": "Alpha"}, "24": {"stimulus": 79, "trial": 24, "rt": 14588, "response": "Alpha"}, "25": {"stimulus": 0, "trial": 25, "rt": 1588, "response": "Alpha"}, "26": {"stimulus": 53, "trial": 26, "rt": 4047, "response": "Beta"}, "27": {"stimulus": 72, "trial": 27, "rt": 4176, "response": "Alpha"}, "20": {"stimulus": 33, "trial": 20, "rt": 2561, "response": "Alpha"}, "21": {"stimulus": 10, "trial": 21, "rt": 5552, "response": "Beta"}, "22": {"stimulus": 47, "trial": 22, "rt": 1041, "response": "Alpha"}, "23": {"stimulus": 3, "trial": 23, "rt": 1612, "response": "Alpha"}, "46": {"stimulus": 54, "trial": 46, "rt": 2757, "response": "Beta"}, "47": {"stimulus": 46, "trial": 47, "rt": 2168, "response": "Beta"}, "44": {"stimulus": 56, "trial": 44, "rt": 6525, "response": "Beta"}, "45": {"stimulus": 2, "trial": 45, "rt": 2867, "response": "Alpha"}, "28": {"stimulus": 35, "trial": 28, "rt": 2838, "response": "Beta"}, "29": {"stimulus": 64, "trial": 29, "rt": 1272, "response": "Alpha"}, "40": {"stimulus": 80, "trial": 40, "rt": 1865, "response": "Alpha"}, "41": {"stimulus": 60, "trial": 41, "rt": 3582, "response": "Beta"}, "1": {"stimulus": 6, "trial": 1, "rt": 10922, "response": "Alpha"}, "0": {"stimulus": 8, "trial": 0, "rt": 8439, "response": "Alpha"}, "3": {"stimulus": 4, "trial": 3, "rt": 2037, "response": "Alpha"}, "2": {"stimulus": 23, "trial": 2, "rt": 2000, "response": "Beta"}, "5": {"stimulus": 18, "trial": 5, "rt": 752, "response": "Alpha"}, "4": {"stimulus": 15, "trial": 4, "rt": 1182, "response": "Alpha"}, "7": {"stimulus": 61, "trial": 7, "rt": 1922, "response": "Alpha"}, "6": {"stimulus": 21, "trial": 6, "rt": 1007, "response": "Alpha"}, "9": {"stimulus": 77, "trial": 9, "rt": 2211, "response": "Alpha"}, "8": {"stimulus": 40, "trial": 8, "rt": 2106, "response": "Alpha"}, "78": {"stimulus": 50, "trial": 78, "rt": 1432, "response": "Beta"}, "51": {"stimulus": 12, "trial": 51, "rt": 1203, "response": "Alpha"}, "39": {"stimulus": 16, "trial": 39, "rt": 2565, "response": "Alpha"}, "65": {"stimulus": 25, "trial": 65, "rt": 1370, "response": "Beta"}, "76": {"stimulus": 62, "trial": 76, "rt": 1927, "response": "Alpha"}, "75": {"stimulus": 11, "trial": 75, "rt": 2325, "response": "Alpha"}, "38": {"stimulus": 14, "trial": 38, "rt": 1503, "response": "Alpha"}, "73": {"stimulus": 55, "trial": 73, "rt": 7402, "response": "Beta"}, "72": {"stimulus": 66, "trial": 72, "rt": 2390, "response": "Alpha"}, "71": {"stimulus": 24, "trial": 71, "rt": 1689, "response": "Alpha"}, "70": {"stimulus": 28, "trial": 70, "rt": 2064, "response": "Beta"}, "59": {"stimulus": 26, "trial": 59, "rt": 1479, "response": "Alpha"}, "79": {"stimulus": 41, "trial": 79, "rt": 1398, "response": "Beta"}, "58": {"stimulus": 32, "trial": 58, "rt": 1415, "response": "Alpha"}, "11": {"stimulus": 42, "trial": 11, "rt": 1333, "response": "Beta"}, "10": {"stimulus": 13, "trial": 10, "rt": 1228, "response": "Alpha"}, "13": {"stimulus": 59, "trial": 13, "rt": 1254, "response": "Alpha"}, "12": {"stimulus": 58, "trial": 12, "rt": 1375, "response": "Alpha"}, "15": {"stimulus": 31, "trial": 15, "rt": 1735, "response": "Beta"}, "14": {"stimulus": 68, "trial": 14, "rt": 1371, "response": "Alpha"}, "17": {"stimulus": 67, "trial": 17, "rt": 1887, "response": "Alpha"}, "16": {"stimulus": 1, "trial": 16, "rt": 26063, "response": "Beta"}, "19": {"stimulus": 27, "trial": 19, "rt": 16212, "response": "Beta"}, "18": {"stimulus": 70, "trial": 18, "rt": 9111, "response": "Alpha"}, "31": {"stimulus": 75, "trial": 31, "rt": 972, "response": "Alpha"}, "30": {"stimulus": 0, "trial": 30, "rt": 1325, "response": "Alpha"}, "37": {"stimulus": 45, "trial": 37, "rt": 2191, "response": "Beta"}, "36": {"stimulus": 65, "trial": 36, "rt": 1462, "response": "Alpha"}, "35": {"stimulus": 20, "trial": 35, "rt": 2119, "response": "Beta"}, "34": {"stimulus": 76, "trial": 34, "rt": 952, "response": "Alpha"}, "33": {"stimulus": 57, "trial": 33, "rt": 1262, "response": "Alpha"}, "55": {"stimulus": 22, "trial": 55, "rt": 2382, "response": "Beta"}, "74": {"stimulus": 43, "trial": 74, "rt": 2799, "response": "Beta"}, "32": {"stimulus": 44, "trial": 32, "rt": 1606, "response": "Beta"}, "57": {"stimulus": 51, "trial": 57, "rt": 1682, "response": "Beta"}, "50": {"stimulus": 36, "trial": 50, "rt": 806, "response": "Alpha"}}, "experiment": {"Paradigm": "TACL", "Stimuli": "Size-Color Squares and Size-Orientation Circles", "Experiment": "Generating-Multiple-Categories"}, "submit": {"timeTotal": 591451, "age": "25", "comments": "it was interesting", "sex": "female"}}