{"info": {"finish": 1554543087954, "participant": 117, "exposed": true, "lab": false, "start": 1554542552709, "counterbalance": 5, "stimtype": "Squares", "gentype": 1, "condition": "Corner_S", "browser": {"platform": "Win32", "userAgent": "Mozilla/5.0 (Windows NT 6.1) AppleWebKit/537.36 (KHTML, like Gecko) Chrome/73.0.3683.86 Safari/537.36"}}, "observation": {"11": {"stimulus": 72, "trial": 11, "rt": 3567}, "10": {"stimulus": 80, "trial": 10, "rt": 2383}, "1": {"stimulus": 80, "trial": 1, "rt": 24047}, "0": {"stimulus": 0, "trial": 0, "rt": 3636}, "3": {"stimulus": 72, "trial": 3, "rt": 2446}, "2": {"stimulus": 8, "trial": 2, "rt": 2560}, "5": {"stimulus": 8, "trial": 5, "rt": 3127}, "4": {"stimulus": 80, "trial": 4, "rt": 2526}, "7": {"stimulus": 72, "trial": 7, "rt": 2231}, "6": {"stimulus": 0, "trial": 6, "rt": 2103}, "9": {"stimulus": 0, "trial": 9, "rt": 1504}, "8": {"stimulus": 8, "trial": 8, "rt": 4589}}, "generation": {"1": {"category": "Beta", "trial": 1, "stimulus": 64, "rt": 8342}, "0": {"category": "Beta", "trial": 0, "stimulus": 63, "rt": 29250}, "3": {"category": "Beta", "trial": 3, "stimulus": 66, "rt": 28356}, "2": {"category": "Beta", "trial": 2, "stimulus": 55, "rt": 4084}}, "generalization": {"56": {"stimulus": 9, "trial": 56, "rt": 5244, "response": "Alpha"}, "77": {"stimulus": 44, "trial": 77, "rt": 404, "response": "Alpha"}, "54": {"stimulus": 12, "trial": 54, "rt": 803, "response": "Alpha"}, "42": {"stimulus": 69, "trial": 42, "rt": 1156, "response": "Alpha"}, "48": {"stimulus": 33, "trial": 48, "rt": 1439, "response": "Alpha"}, "43": {"stimulus": 74, "trial": 43, "rt": 3008, "response": "Alpha"}, "60": {"stimulus": 66, "trial": 60, "rt": 1053, "response": "Alpha"}, "61": {"stimulus": 29, "trial": 61, "rt": 1059, "response": "Alpha"}, "62": {"stimulus": 20, "trial": 62, "rt": 833, "response": "Alpha"}, "63": {"stimulus": 27, "trial": 63, "rt": 864, "response": "Alpha"}, "64": {"stimulus": 52, "trial": 64, "rt": 829, "response": "Alpha"}, "49": {"stimulus": 76, "trial": 49, "rt": 2373, "response": "Alpha"}, "66": {"stimulus": 50, "trial": 66, "rt": 3165, "response": "Alpha"}, "67": {"stimulus": 6, "trial": 67, "rt": 2069, "response": "Alpha"}, "68": {"stimulus": 46, "trial": 68, "rt": 1341, "response": "Alpha"}, "69": {"stimulus": 24, "trial": 69, "rt": 2667, "response": "Alpha"}, "80": {"stimulus": 7, "trial": 80, "rt": 575, "response": "Alpha"}, "52": {"stimulus": 41, "trial": 52, "rt": 2554, "response": "Alpha"}, "53": {"stimulus": 77, "trial": 53, "rt": 8100, "response": "Alpha"}, "24": {"stimulus": 72, "trial": 24, "rt": 1652, "response": "Alpha"}, "25": {"stimulus": 38, "trial": 25, "rt": 2380, "response": "Alpha"}, "26": {"stimulus": 0, "trial": 26, "rt": 833, "response": "Alpha"}, "27": {"stimulus": 30, "trial": 27, "rt": 2186, "response": "Alpha"}, "20": {"stimulus": 25, "trial": 20, "rt": 4383, "response": "Alpha"}, "21": {"stimulus": 73, "trial": 21, "rt": 3370, "response": "Alpha"}, "22": {"stimulus": 13, "trial": 22, "rt": 1888, "response": "Alpha"}, "23": {"stimulus": 14, "trial": 23, "rt": 518, "response": "Alpha"}, "46": {"stimulus": 49, "trial": 46, "rt": 4620, "response": "Alpha"}, "47": {"stimulus": 8, "trial": 47, "rt": 1402, "response": "Alpha"}, "44": {"stimulus": 10, "trial": 44, "rt": 5694, "response": "Alpha"}, "45": {"stimulus": 31, "trial": 45, "rt": 1976, "response": "Alpha"}, "28": {"stimulus": 3, "trial": 28, "rt": 816, "response": "Alpha"}, "29": {"stimulus": 42, "trial": 29, "rt": 2595, "response": "Alpha"}, "40": {"stimulus": 26, "trial": 40, "rt": 2487, "response": "Alpha"}, "41": {"stimulus": 37, "trial": 41, "rt": 2076, "response": "Alpha"}, "1": {"stimulus": 61, "trial": 1, "rt": 1098, "response": "Alpha"}, "0": {"stimulus": 43, "trial": 0, "rt": 1823, "response": "Alpha"}, "3": {"stimulus": 64, "trial": 3, "rt": 2669, "response": "Alpha"}, "2": {"stimulus": 65, "trial": 2, "rt": 2208, "response": "Beta"}, "5": {"stimulus": 18, "trial": 5, "rt": 430, "response": "Alpha"}, "4": {"stimulus": 56, "trial": 4, "rt": 1900, "response": "Beta"}, "7": {"stimulus": 1, "trial": 7, "rt": 3901, "response": "Alpha"}, "6": {"stimulus": 0, "trial": 6, "rt": 439, "response": "Alpha"}, "9": {"stimulus": 51, "trial": 9, "rt": 1510, "response": "Alpha"}, "8": {"stimulus": 32, "trial": 8, "rt": 15221, "response": "Alpha"}, "78": {"stimulus": 28, "trial": 78, "rt": 439, "response": "Alpha"}, "51": {"stimulus": 36, "trial": 51, "rt": 1443, "response": "Alpha"}, "39": {"stimulus": 75, "trial": 39, "rt": 2086, "response": "Alpha"}, "65": {"stimulus": 22, "trial": 65, "rt": 567, "response": "Alpha"}, "76": {"stimulus": 57, "trial": 76, "rt": 9341, "response": "Alpha"}, "75": {"stimulus": 16, "trial": 75, "rt": 4189, "response": "Alpha"}, "38": {"stimulus": 60, "trial": 38, "rt": 2550, "response": "Alpha"}, "73": {"stimulus": 71, "trial": 73, "rt": 3457, "response": "Alpha"}, "72": {"stimulus": 11, "trial": 72, "rt": 1608, "response": "Alpha"}, "71": {"stimulus": 54, "trial": 71, "rt": 941, "response": "Alpha"}, "70": {"stimulus": 5, "trial": 70, "rt": 1996, "response": "Alpha"}, "59": {"stimulus": 21, "trial": 59, "rt": 1290, "response": "Alpha"}, "79": {"stimulus": 35, "trial": 79, "rt": 370, "response": "Alpha"}, "58": {"stimulus": 63, "trial": 58, "rt": 1003, "response": "Alpha"}, "11": {"stimulus": 67, "trial": 11, "rt": 1116, "response": "Alpha"}, "10": {"stimulus": 34, "trial": 10, "rt": 1940, "response": "Alpha"}, "13": {"stimulus": 48, "trial": 13, "rt": 4332, "response": "Alpha"}, "12": {"stimulus": 78, "trial": 12, "rt": 2037, "response": "Alpha"}, "15": {"stimulus": 47, "trial": 15, "rt": 1726, "response": "Alpha"}, "14": {"stimulus": 80, "trial": 14, "rt": 2932, "response": "Alpha"}, "17": {"stimulus": 59, "trial": 17, "rt": 4266, "response": "Alpha"}, "16": {"stimulus": 55, "trial": 16, "rt": 5312, "response": "Alpha"}, "19": {"stimulus": 17, "trial": 19, "rt": 2597, "response": "Alpha"}, "18": {"stimulus": 58, "trial": 18, "rt": 4390, "response": "Alpha"}, "31": {"stimulus": 2, "trial": 31, "rt": 1781, "response": "Alpha"}, "30": {"stimulus": 79, "trial": 30, "rt": 1440, "response": "Alpha"}, "37": {"stimulus": 70, "trial": 37, "rt": 3030, "response": "Alpha"}, "36": {"stimulus": 23, "trial": 36, "rt": 1952, "response": "Alpha"}, "35": {"stimulus": 19, "trial": 35, "rt": 1262, "response": "Alpha"}, "34": {"stimulus": 53, "trial": 34, "rt": 2494, "response": "Alpha"}, "33": {"stimulus": 62, "trial": 33, "rt": 4342, "response": "Alpha"}, "55": {"stimulus": 68, "trial": 55, "rt": 695, "response": "Alpha"}, "74": {"stimulus": 45, "trial": 74, "rt": 2189, "response": "Alpha"}, "32": {"stimulus": 40, "trial": 32, "rt": 614, "response": "Alpha"}, "57": {"stimulus": 4, "trial": 57, "rt": 3230, "response": "Alpha"}, "50": {"stimulus": 15, "trial": 50, "rt": 2022, "response": "Alpha"}}, "experiment": {"Paradigm": "TACL", "Stimuli": "Size-Color Squares and Size-Orientation Circles", "Experiment": "Generating-Multiple-Categories"}, "submit": {"timeTotal": 536608, "age": "35", "comments": "nice", "sex": "female"}}