{"info": {"finish": 1554543360589, "participant": 118, "exposed": true, "lab": false, "start": 1554541789940, "counterbalance": 3, "stimtype": "Circles", "gentype": 1, "condition": "Corner_C", "browser": {"platform": "Win32", "userAgent": "Mozilla/5.0 (Windows NT 6.1) AppleWebKit/537.36 (KHTML, like Gecko) Chrome/73.0.3683.86 Safari/537.36"}}, "observation": {"11": {"stimulus": 8, "trial": 11, "rt": 5658}, "10": {"stimulus": 72, "trial": 10, "rt": 21908}, "1": {"stimulus": 72, "trial": 1, "rt": 10349}, "0": {"stimulus": 0, "trial": 0, "rt": 2849}, "3": {"stimulus": 8, "trial": 3, "rt": 4920}, "2": {"stimulus": 80, "trial": 2, "rt": 2568}, "5": {"stimulus": 8, "trial": 5, "rt": 1818}, "4": {"stimulus": 80, "trial": 4, "rt": 1932}, "7": {"stimulus": 72, "trial": 7, "rt": -368}, "6": {"stimulus": 0, "trial": 6, "rt": 44278}, "9": {"stimulus": 0, "trial": 9, "rt": 2147}, "8": {"stimulus": 80, "trial": 8, "rt": 19436}}, "generation": {"1": {"category": "Beta", "trial": 1, "stimulus": 20, "rt": 3807}, "0": {"category": "Beta", "trial": 0, "stimulus": 19, "rt": 5709}, "3": {"category": "Beta", "trial": 3, "stimulus": 11, "rt": 4700}, "2": {"category": "Beta", "trial": 2, "stimulus": 41, "rt": 3380}}, "generalization": {"56": {"stimulus": 50, "trial": 56, "rt": 1512, "response": "Beta"}, "77": {"stimulus": 73, "trial": 77, "rt": 625, "response": "Alpha"}, "54": {"stimulus": 19, "trial": 54, "rt": 5953, "response": "Alpha"}, "42": {"stimulus": 21, "trial": 42, "rt": 3249, "response": "Alpha"}, "48": {"stimulus": 0, "trial": 48, "rt": 450, "response": "Alpha"}, "43": {"stimulus": 7, "trial": 43, "rt": 394, "response": "Alpha"}, "60": {"stimulus": 14, "trial": 60, "rt": 1415, "response": "Beta"}, "61": {"stimulus": 0, "trial": 61, "rt": 895, "response": "Beta"}, "62": {"stimulus": 15, "trial": 62, "rt": 1097, "response": "Beta"}, "63": {"stimulus": 79, "trial": 63, "rt": 676, "response": "Beta"}, "64": {"stimulus": 5, "trial": 64, "rt": 3453, "response": "Beta"}, "49": {"stimulus": 2, "trial": 49, "rt": 957, "response": "Alpha"}, "66": {"stimulus": 20, "trial": 66, "rt": 597, "response": "Beta"}, "67": {"stimulus": 30, "trial": 67, "rt": 371, "response": "Beta"}, "68": {"stimulus": 1, "trial": 68, "rt": 972, "response": "Alpha"}, "69": {"stimulus": 59, "trial": 69, "rt": 309, "response": "Alpha"}, "80": {"stimulus": 44, "trial": 80, "rt": 1108, "response": "Beta"}, "52": {"stimulus": 18, "trial": 52, "rt": 1190, "response": "Alpha"}, "53": {"stimulus": 16, "trial": 53, "rt": 1072, "response": "Alpha"}, "24": {"stimulus": 33, "trial": 24, "rt": 728, "response": "Beta"}, "25": {"stimulus": 57, "trial": 25, "rt": 680, "response": "Alpha"}, "26": {"stimulus": 69, "trial": 26, "rt": 1439, "response": "Alpha"}, "27": {"stimulus": 76, "trial": 27, "rt": -8000, "response": "Alpha"}, "20": {"stimulus": 10, "trial": 20, "rt": 22330, "response": "Alpha"}, "21": {"stimulus": 63, "trial": 21, "rt": 13527, "response": "Alpha"}, "22": {"stimulus": 34, "trial": 22, "rt": 2525, "response": "Alpha"}, "23": {"stimulus": 29, "trial": 23, "rt": 10283, "response": "Alpha"}, "46": {"stimulus": 53, "trial": 46, "rt": -1414, "response": "Alpha"}, "47": {"stimulus": 46, "trial": 47, "rt": 423, "response": "Alpha"}, "44": {"stimulus": 51, "trial": 44, "rt": 631, "response": "Alpha"}, "45": {"stimulus": 13, "trial": 45, "rt": 592, "response": "Alpha"}, "28": {"stimulus": 70, "trial": 28, "rt": 407, "response": "Alpha"}, "29": {"stimulus": 6, "trial": 29, "rt": 1022, "response": "Beta"}, "40": {"stimulus": 38, "trial": 40, "rt": 13045, "response": "Beta"}, "41": {"stimulus": 11, "trial": 41, "rt": 5539, "response": "Alpha"}, "1": {"stimulus": 78, "trial": 1, "rt": 1107, "response": "Beta"}, "0": {"stimulus": 67, "trial": 0, "rt": 1543, "response": "Alpha"}, "3": {"stimulus": 42, "trial": 3, "rt": 921, "response": "Alpha"}, "2": {"stimulus": 74, "trial": 2, "rt": 9727, "response": "Beta"}, "5": {"stimulus": 27, "trial": 5, "rt": 27453, "response": "Beta"}, "4": {"stimulus": 64, "trial": 4, "rt": 14638, "response": "Alpha"}, "7": {"stimulus": 31, "trial": 7, "rt": 769, "response": "Beta"}, "6": {"stimulus": 52, "trial": 6, "rt": -1484, "response": "Alpha"}, "9": {"stimulus": 66, "trial": 9, "rt": 879, "response": "Alpha"}, "8": {"stimulus": 3, "trial": 8, "rt": 14034, "response": "Beta"}, "78": {"stimulus": 22, "trial": 78, "rt": 744, "response": "Beta"}, "51": {"stimulus": 55, "trial": 51, "rt": 237, "response": "Alpha"}, "39": {"stimulus": 8, "trial": 39, "rt": 607, "response": "Alpha"}, "65": {"stimulus": 4, "trial": 65, "rt": 2997, "response": "Beta"}, "76": {"stimulus": 65, "trial": 76, "rt": 393, "response": "Alpha"}, "75": {"stimulus": 35, "trial": 75, "rt": 2100, "response": "Alpha"}, "38": {"stimulus": 24, "trial": 38, "rt": 658, "response": "Beta"}, "73": {"stimulus": 72, "trial": 73, "rt": 962, "response": "Alpha"}, "72": {"stimulus": 43, "trial": 72, "rt": 1083, "response": "Alpha"}, "71": {"stimulus": 32, "trial": 71, "rt": 236, "response": "Alpha"}, "70": {"stimulus": 71, "trial": 70, "rt": 717, "response": "Alpha"}, "59": {"stimulus": 75, "trial": 59, "rt": 1201, "response": "Beta"}, "79": {"stimulus": 58, "trial": 79, "rt": 1360, "response": "Beta"}, "58": {"stimulus": 17, "trial": 58, "rt": 286, "response": "Beta"}, "11": {"stimulus": 60, "trial": 11, "rt": 670, "response": "Alpha"}, "10": {"stimulus": 23, "trial": 10, "rt": 4177, "response": "Alpha"}, "13": {"stimulus": 36, "trial": 13, "rt": 720, "response": "Beta"}, "12": {"stimulus": 54, "trial": 12, "rt": 18306, "response": "Alpha"}, "15": {"stimulus": 49, "trial": 15, "rt": 971135, "response": "Alpha"}, "14": {"stimulus": 25, "trial": 14, "rt": 1458, "response": "Alpha"}, "17": {"stimulus": 45, "trial": 17, "rt": 357, "response": "Alpha"}, "16": {"stimulus": 56, "trial": 16, "rt": 733, "response": "Beta"}, "19": {"stimulus": 40, "trial": 19, "rt": 109651, "response": "Alpha"}, "18": {"stimulus": 80, "trial": 18, "rt": 20669, "response": "Alpha"}, "31": {"stimulus": 12, "trial": 31, "rt": 976, "response": "Alpha"}, "30": {"stimulus": 48, "trial": 30, "rt": 9669, "response": "Beta"}, "37": {"stimulus": 41, "trial": 37, "rt": 673, "response": "Alpha"}, "36": {"stimulus": 61, "trial": 36, "rt": 408, "response": "Alpha"}, "35": {"stimulus": 37, "trial": 35, "rt": 579, "response": "Alpha"}, "34": {"stimulus": 68, "trial": 34, "rt": 623, "response": "Alpha"}, "33": {"stimulus": 62, "trial": 33, "rt": 613, "response": "Alpha"}, "55": {"stimulus": 28, "trial": 55, "rt": 1025, "response": "Alpha"}, "74": {"stimulus": 26, "trial": 74, "rt": 718, "response": "Alpha"}, "32": {"stimulus": 9, "trial": 32, "rt": 573, "response": "Alpha"}, "57": {"stimulus": 77, "trial": 57, "rt": 493, "response": "Beta"}, "50": {"stimulus": 47, "trial": 50, "rt": 898, "response": "Alpha"}}, "experiment": {"Paradigm": "TACL", "Stimuli": "Size-Color Squares and Size-Orientation Circles", "Experiment": "Generating-Multiple-Categories"}, "submit": {"timeTotal": 1570966, "age": "29", "comments": "No", "sex": "Male"}}