{"info": {"finish": 1554543582182, "participant": 119, "exposed": true, "lab": false, "start": 1554543281132, "counterbalance": 0, "stimtype": "Circles", "gentype": 1, "condition": "Corner_C", "browser": {"platform": "Win32", "userAgent": "Mozilla/5.0 (Windows NT 10.0; Win64; x64) AppleWebKit/537.36 (KHTML, like Gecko) Chrome/73.0.3683.86 Safari/537.36"}}, "observation": {"11": {"stimulus": 72, "trial": 11, "rt": 1543}, "10": {"stimulus": 8, "trial": 10, "rt": 1491}, "1": {"stimulus": 8, "trial": 1, "rt": 1821}, "0": {"stimulus": 80, "trial": 0, "rt": 12447}, "3": {"stimulus": 0, "trial": 3, "rt": 1759}, "2": {"stimulus": 72, "trial": 2, "rt": 2041}, "5": {"stimulus": 80, "trial": 5, "rt": 2245}, "4": {"stimulus": 0, "trial": 4, "rt": 1960}, "7": {"stimulus": 8, "trial": 7, "rt": 2130}, "6": {"stimulus": 72, "trial": 6, "rt": 2191}, "9": {"stimulus": 80, "trial": 9, "rt": 1546}, "8": {"stimulus": 0, "trial": 8, "rt": 8687}}, "generation": {"1": {"category": "Beta", "trial": 1, "stimulus": 52, "rt": 14834}, "0": {"category": "Beta", "trial": 0, "stimulus": 41, "rt": 11528}, "3": {"category": "Beta", "trial": 3, "stimulus": 54, "rt": 11485}, "2": {"category": "Beta", "trial": 2, "stimulus": 44, "rt": 14636}}, "generalization": {"56": {"stimulus": 78, "trial": 56, "rt": 1133, "response": "Alpha"}, "77": {"stimulus": 73, "trial": 77, "rt": 1062, "response": "Alpha"}, "54": {"stimulus": 18, "trial": 54, "rt": 756, "response": "Alpha"}, "42": {"stimulus": 34, "trial": 42, "rt": 1387, "response": "Alpha"}, "48": {"stimulus": 22, "trial": 48, "rt": 1078, "response": "Alpha"}, "43": {"stimulus": 38, "trial": 43, "rt": 1270, "response": "Beta"}, "60": {"stimulus": 0, "trial": 60, "rt": 975, "response": "Alpha"}, "61": {"stimulus": 7, "trial": 61, "rt": 1093, "response": "Alpha"}, "62": {"stimulus": 36, "trial": 62, "rt": 1003, "response": "Beta"}, "63": {"stimulus": 42, "trial": 63, "rt": 727, "response": "Beta"}, "64": {"stimulus": 9, "trial": 64, "rt": 1062, "response": "Alpha"}, "49": {"stimulus": 13, "trial": 49, "rt": 775, "response": "Alpha"}, "66": {"stimulus": 6, "trial": 66, "rt": 1566, "response": "Alpha"}, "67": {"stimulus": 61, "trial": 67, "rt": 1053, "response": "Beta"}, "68": {"stimulus": 60, "trial": 68, "rt": 661, "response": "Beta"}, "69": {"stimulus": 10, "trial": 69, "rt": 1116, "response": "Alpha"}, "80": {"stimulus": 35, "trial": 80, "rt": 774, "response": "Alpha"}, "52": {"stimulus": 67, "trial": 52, "rt": 797, "response": "Beta"}, "53": {"stimulus": 29, "trial": 53, "rt": 1405, "response": "Alpha"}, "24": {"stimulus": 31, "trial": 24, "rt": 1423, "response": "Alpha"}, "25": {"stimulus": 27, "trial": 25, "rt": 777, "response": "Alpha"}, "26": {"stimulus": 57, "trial": 26, "rt": 1062, "response": "Beta"}, "27": {"stimulus": 71, "trial": 27, "rt": 735, "response": "Beta"}, "20": {"stimulus": 4, "trial": 20, "rt": 733, "response": "Alpha"}, "21": {"stimulus": 28, "trial": 21, "rt": 1499, "response": "Alpha"}, "22": {"stimulus": 54, "trial": 22, "rt": 1077, "response": "Beta"}, "23": {"stimulus": 59, "trial": 23, "rt": 695, "response": "Beta"}, "46": {"stimulus": 50, "trial": 46, "rt": 779, "response": "Beta"}, "47": {"stimulus": 51, "trial": 47, "rt": 688, "response": "Beta"}, "44": {"stimulus": 68, "trial": 44, "rt": 747, "response": "Beta"}, "45": {"stimulus": 63, "trial": 45, "rt": 754, "response": "Beta"}, "28": {"stimulus": 79, "trial": 28, "rt": 1472, "response": "Alpha"}, "29": {"stimulus": 32, "trial": 29, "rt": 896, "response": "Alpha"}, "40": {"stimulus": 65, "trial": 40, "rt": 751, "response": "Beta"}, "41": {"stimulus": 72, "trial": 41, "rt": 1288, "response": "Alpha"}, "1": {"stimulus": 12, "trial": 1, "rt": 991, "response": "Alpha"}, "0": {"stimulus": 25, "trial": 0, "rt": 1615, "response": "Alpha"}, "3": {"stimulus": 64, "trial": 3, "rt": 1220, "response": "Beta"}, "2": {"stimulus": 14, "trial": 2, "rt": 944, "response": "Alpha"}, "5": {"stimulus": 70, "trial": 5, "rt": 794, "response": "Beta"}, "4": {"stimulus": 75, "trial": 4, "rt": 1298, "response": "Alpha"}, "7": {"stimulus": 41, "trial": 7, "rt": 1269, "response": "Beta"}, "6": {"stimulus": 15, "trial": 6, "rt": 1189, "response": "Alpha"}, "9": {"stimulus": 26, "trial": 9, "rt": 1273, "response": "Alpha"}, "8": {"stimulus": 46, "trial": 8, "rt": 1377, "response": "Beta"}, "78": {"stimulus": 1, "trial": 78, "rt": 803, "response": "Alpha"}, "51": {"stimulus": 62, "trial": 51, "rt": 1124, "response": "Beta"}, "39": {"stimulus": 37, "trial": 39, "rt": 1133, "response": "Beta"}, "65": {"stimulus": 44, "trial": 65, "rt": 987, "response": "Beta"}, "76": {"stimulus": 53, "trial": 76, "rt": 1091, "response": "Beta"}, "75": {"stimulus": 19, "trial": 75, "rt": 1105, "response": "Alpha"}, "38": {"stimulus": 5, "trial": 38, "rt": 1248, "response": "Alpha"}, "73": {"stimulus": 21, "trial": 73, "rt": 813, "response": "Alpha"}, "72": {"stimulus": 80, "trial": 72, "rt": 852, "response": "Alpha"}, "71": {"stimulus": 77, "trial": 71, "rt": 1039, "response": "Alpha"}, "70": {"stimulus": 40, "trial": 70, "rt": 2150, "response": "Beta"}, "59": {"stimulus": 49, "trial": 59, "rt": 1136, "response": "Beta"}, "79": {"stimulus": 33, "trial": 79, "rt": 949, "response": "Alpha"}, "58": {"stimulus": 17, "trial": 58, "rt": 1078, "response": "Alpha"}, "11": {"stimulus": 47, "trial": 11, "rt": 860, "response": "Alpha"}, "10": {"stimulus": 69, "trial": 10, "rt": 1030, "response": "Beta"}, "13": {"stimulus": 0, "trial": 13, "rt": 1082, "response": "Alpha"}, "12": {"stimulus": 48, "trial": 12, "rt": 985, "response": "Beta"}, "15": {"stimulus": 55, "trial": 15, "rt": 1060, "response": "Beta"}, "14": {"stimulus": 20, "trial": 14, "rt": 1229, "response": "Alpha"}, "17": {"stimulus": 74, "trial": 17, "rt": 1223, "response": "Alpha"}, "16": {"stimulus": 30, "trial": 16, "rt": 4485, "response": "Beta"}, "19": {"stimulus": 23, "trial": 19, "rt": 779, "response": "Alpha"}, "18": {"stimulus": 3, "trial": 18, "rt": 755, "response": "Alpha"}, "31": {"stimulus": 2, "trial": 31, "rt": 1500, "response": "Alpha"}, "30": {"stimulus": 66, "trial": 30, "rt": 1045, "response": "Beta"}, "37": {"stimulus": 52, "trial": 37, "rt": 1045, "response": "Beta"}, "36": {"stimulus": 11, "trial": 36, "rt": 703, "response": "Alpha"}, "35": {"stimulus": 16, "trial": 35, "rt": 1264, "response": "Alpha"}, "34": {"stimulus": 56, "trial": 34, "rt": 1219, "response": "Beta"}, "33": {"stimulus": 24, "trial": 33, "rt": 862, "response": "Alpha"}, "55": {"stimulus": 58, "trial": 55, "rt": 1166, "response": "Beta"}, "74": {"stimulus": 43, "trial": 74, "rt": 1067, "response": "Beta"}, "32": {"stimulus": 76, "trial": 32, "rt": 766, "response": "Alpha"}, "57": {"stimulus": 45, "trial": 57, "rt": 1103, "response": "Beta"}, "50": {"stimulus": 8, "trial": 50, "rt": 738, "response": "Alpha"}}, "experiment": {"Paradigm": "TACL", "Stimuli": "Size-Color Squares and Size-Orientation Circles", "Experiment": "Generating-Multiple-Categories"}, "submit": {"timeTotal": 302099, "age": "34", "comments": "ok", "sex": "male"}}