{"info": {"finish": 1554494130690, "participant": 12, "exposed": true, "lab": false, "start": 1554493843684, "counterbalance": 3, "stimtype": "Squares", "gentype": 1, "condition": "Corner_S", "browser": {"platform": "Win32", "userAgent": "Mozilla/5.0 (Windows NT 10.0; Win64; x64) AppleWebKit/537.36 (KHTML, like Gecko) Chrome/73.0.3683.86 Safari/537.36"}}, "observation": {"11": {"stimulus": 8, "trial": 11, "rt": 1382}, "10": {"stimulus": 72, "trial": 10, "rt": 4904}, "1": {"stimulus": 80, "trial": 1, "rt": 1769}, "0": {"stimulus": 8, "trial": 0, "rt": 2125}, "3": {"stimulus": 72, "trial": 3, "rt": 1765}, "2": {"stimulus": 0, "trial": 2, "rt": 2943}, "5": {"stimulus": 72, "trial": 5, "rt": 1527}, "4": {"stimulus": 80, "trial": 4, "rt": 1565}, "7": {"stimulus": 8, "trial": 7, "rt": 1470}, "6": {"stimulus": 0, "trial": 6, "rt": 1509}, "9": {"stimulus": 0, "trial": 9, "rt": 1408}, "8": {"stimulus": 80, "trial": 8, "rt": 1473}}, "generation": {"1": {"category": "Beta", "trial": 1, "stimulus": 25, "rt": 3894}, "0": {"category": "Beta", "trial": 0, "stimulus": 18, "rt": 8201}, "3": {"category": "Beta", "trial": 3, "stimulus": 9, "rt": 4120}, "2": {"category": "Beta", "trial": 2, "stimulus": 44, "rt": 5558}}, "generalization": {"56": {"stimulus": 11, "trial": 56, "rt": 1298, "response": "Alpha"}, "77": {"stimulus": 46, "trial": 77, "rt": 968, "response": "Alpha"}, "54": {"stimulus": 77, "trial": 54, "rt": 1572, "response": "Alpha"}, "42": {"stimulus": 3, "trial": 42, "rt": 782, "response": "Alpha"}, "48": {"stimulus": 21, "trial": 48, "rt": 1805, "response": "Beta"}, "43": {"stimulus": 5, "trial": 43, "rt": 496, "response": "Alpha"}, "60": {"stimulus": 78, "trial": 60, "rt": 1014, "response": "Alpha"}, "61": {"stimulus": 6, "trial": 61, "rt": 753, "response": "Alpha"}, "62": {"stimulus": 25, "trial": 62, "rt": 1754, "response": "Alpha"}, "63": {"stimulus": 0, "trial": 63, "rt": 707, "response": "Alpha"}, "64": {"stimulus": 10, "trial": 64, "rt": 697, "response": "Alpha"}, "49": {"stimulus": 20, "trial": 49, "rt": 632, "response": "Beta"}, "66": {"stimulus": 58, "trial": 66, "rt": 756, "response": "Alpha"}, "67": {"stimulus": 2, "trial": 67, "rt": 730, "response": "Alpha"}, "68": {"stimulus": 69, "trial": 68, "rt": 642, "response": "Alpha"}, "69": {"stimulus": 24, "trial": 69, "rt": 1177, "response": "Beta"}, "80": {"stimulus": 67, "trial": 80, "rt": 1257, "response": "Alpha"}, "52": {"stimulus": 54, "trial": 52, "rt": 1066, "response": "Alpha"}, "53": {"stimulus": 48, "trial": 53, "rt": 1171, "response": "Alpha"}, "24": {"stimulus": 15, "trial": 24, "rt": 2596, "response": "Alpha"}, "25": {"stimulus": 56, "trial": 25, "rt": 1289, "response": "Alpha"}, "26": {"stimulus": 44, "trial": 26, "rt": 1554, "response": "Beta"}, "27": {"stimulus": 22, "trial": 27, "rt": 2493, "response": "Beta"}, "20": {"stimulus": 74, "trial": 20, "rt": 919, "response": "Alpha"}, "21": {"stimulus": 33, "trial": 21, "rt": 1111, "response": "Alpha"}, "22": {"stimulus": 35, "trial": 22, "rt": 1905, "response": "Alpha"}, "23": {"stimulus": 28, "trial": 23, "rt": 1169, "response": "Alpha"}, "46": {"stimulus": 72, "trial": 46, "rt": 1619, "response": "Alpha"}, "47": {"stimulus": 76, "trial": 47, "rt": 819, "response": "Alpha"}, "44": {"stimulus": 53, "trial": 44, "rt": 715, "response": "Beta"}, "45": {"stimulus": 19, "trial": 45, "rt": 1253, "response": "Beta"}, "28": {"stimulus": 7, "trial": 28, "rt": 3620, "response": "Alpha"}, "29": {"stimulus": 14, "trial": 29, "rt": 5199, "response": "Alpha"}, "40": {"stimulus": 0, "trial": 40, "rt": 1458, "response": "Alpha"}, "41": {"stimulus": 40, "trial": 41, "rt": 989, "response": "Beta"}, "1": {"stimulus": 31, "trial": 1, "rt": 1546, "response": "Beta"}, "0": {"stimulus": 63, "trial": 0, "rt": 2460, "response": "Alpha"}, "3": {"stimulus": 29, "trial": 3, "rt": 918, "response": "Beta"}, "2": {"stimulus": 17, "trial": 2, "rt": 1577, "response": "Beta"}, "5": {"stimulus": 9, "trial": 5, "rt": 725, "response": "Alpha"}, "4": {"stimulus": 1, "trial": 4, "rt": 903, "response": "Alpha"}, "7": {"stimulus": 37, "trial": 7, "rt": 1237, "response": "Beta"}, "6": {"stimulus": 32, "trial": 6, "rt": 2218, "response": "Beta"}, "9": {"stimulus": 80, "trial": 9, "rt": 509, "response": "Alpha"}, "8": {"stimulus": 60, "trial": 8, "rt": 2478, "response": "Alpha"}, "78": {"stimulus": 59, "trial": 78, "rt": 2005, "response": "Beta"}, "51": {"stimulus": 47, "trial": 51, "rt": 1054, "response": "Alpha"}, "39": {"stimulus": 52, "trial": 39, "rt": 859, "response": "Alpha"}, "65": {"stimulus": 70, "trial": 65, "rt": 854, "response": "Alpha"}, "76": {"stimulus": 65, "trial": 76, "rt": 12534, "response": "Alpha"}, "75": {"stimulus": 13, "trial": 75, "rt": 2539, "response": "Alpha"}, "38": {"stimulus": 8, "trial": 38, "rt": 2846, "response": "Alpha"}, "73": {"stimulus": 49, "trial": 73, "rt": 1714, "response": "Beta"}, "72": {"stimulus": 34, "trial": 72, "rt": 974, "response": "Beta"}, "71": {"stimulus": 61, "trial": 71, "rt": 821, "response": "Alpha"}, "70": {"stimulus": 23, "trial": 70, "rt": 911, "response": "Beta"}, "59": {"stimulus": 16, "trial": 59, "rt": 716, "response": "Alpha"}, "79": {"stimulus": 4, "trial": 79, "rt": 1194, "response": "Alpha"}, "58": {"stimulus": 55, "trial": 58, "rt": 1272, "response": "Alpha"}, "11": {"stimulus": 71, "trial": 11, "rt": 851, "response": "Alpha"}, "10": {"stimulus": 68, "trial": 10, "rt": 795, "response": "Alpha"}, "13": {"stimulus": 57, "trial": 13, "rt": 3367, "response": "Alpha"}, "12": {"stimulus": 30, "trial": 12, "rt": 1215, "response": "Beta"}, "15": {"stimulus": 73, "trial": 15, "rt": 7164, "response": "Alpha"}, "14": {"stimulus": 45, "trial": 14, "rt": 1702, "response": "Alpha"}, "17": {"stimulus": 41, "trial": 17, "rt": 1402, "response": "Beta"}, "16": {"stimulus": 42, "trial": 16, "rt": 1242, "response": "Beta"}, "19": {"stimulus": 50, "trial": 19, "rt": 788, "response": "Alpha"}, "18": {"stimulus": 18, "trial": 18, "rt": 1728, "response": "Alpha"}, "31": {"stimulus": 64, "trial": 31, "rt": 804, "response": "Alpha"}, "30": {"stimulus": 75, "trial": 30, "rt": 3695, "response": "Alpha"}, "37": {"stimulus": 51, "trial": 37, "rt": 2290, "response": "Alpha"}, "36": {"stimulus": 12, "trial": 36, "rt": 1886, "response": "Beta"}, "35": {"stimulus": 36, "trial": 35, "rt": 3364, "response": "Alpha"}, "34": {"stimulus": 43, "trial": 34, "rt": 1757, "response": "Beta"}, "33": {"stimulus": 66, "trial": 33, "rt": 1780, "response": "Alpha"}, "55": {"stimulus": 38, "trial": 55, "rt": 895, "response": "Alpha"}, "74": {"stimulus": 62, "trial": 74, "rt": 1204, "response": "Alpha"}, "32": {"stimulus": 26, "trial": 32, "rt": 1589, "response": "Beta"}, "57": {"stimulus": 27, "trial": 57, "rt": 964, "response": "Alpha"}, "50": {"stimulus": 79, "trial": 50, "rt": 775, "response": "Alpha"}}, "experiment": {"Paradigm": "TACL", "Stimuli": "Size-Color Squares and Size-Orientation Circles", "Experiment": "Generating-Multiple-Categories"}, "submit": {"timeTotal": 287386, "age": "28", "comments": "", "sex": "male"}}