{"info": {"finish": 1554544154844, "participant": 120, "exposed": true, "lab": false, "start": 1554543836900, "counterbalance": 2, "stimtype": "Circles", "gentype": 1, "condition": "Corner_C", "browser": {"platform": "Win32", "userAgent": "Mozilla/5.0 (Windows NT 10.0; Win64; x64) AppleWebKit/537.36 (KHTML, like Gecko) Chrome/73.0.3683.86 Safari/537.36"}}, "observation": {"11": {"stimulus": 72, "trial": 11, "rt": 1647}, "10": {"stimulus": 0, "trial": 10, "rt": 1500}, "1": {"stimulus": 0, "trial": 1, "rt": 1943}, "0": {"stimulus": 8, "trial": 0, "rt": 3099}, "3": {"stimulus": 72, "trial": 3, "rt": 1766}, "2": {"stimulus": 80, "trial": 2, "rt": 2377}, "5": {"stimulus": 80, "trial": 5, "rt": 1642}, "4": {"stimulus": 8, "trial": 4, "rt": 1666}, "7": {"stimulus": 72, "trial": 7, "rt": 1582}, "6": {"stimulus": 0, "trial": 6, "rt": 1801}, "9": {"stimulus": 80, "trial": 9, "rt": 1844}, "8": {"stimulus": 8, "trial": 8, "rt": 1593}}, "generation": {"1": {"category": "Beta", "trial": 1, "stimulus": 65, "rt": 8734}, "0": {"category": "Beta", "trial": 0, "stimulus": 70, "rt": 16321}, "3": {"category": "Beta", "trial": 3, "stimulus": 71, "rt": 13846}, "2": {"category": "Beta", "trial": 2, "stimulus": 68, "rt": 10251}}, "generalization": {"56": {"stimulus": 51, "trial": 56, "rt": 738, "response": "Beta"}, "77": {"stimulus": 36, "trial": 77, "rt": 1946, "response": "Beta"}, "54": {"stimulus": 14, "trial": 54, "rt": 917, "response": "Beta"}, "42": {"stimulus": 12, "trial": 42, "rt": 3570, "response": "Beta"}, "48": {"stimulus": 58, "trial": 48, "rt": 710, "response": "Beta"}, "43": {"stimulus": 0, "trial": 43, "rt": 3472, "response": "Alpha"}, "60": {"stimulus": 46, "trial": 60, "rt": 2014, "response": "Beta"}, "61": {"stimulus": 55, "trial": 61, "rt": 716, "response": "Beta"}, "62": {"stimulus": 67, "trial": 62, "rt": 590, "response": "Beta"}, "63": {"stimulus": 37, "trial": 63, "rt": 571, "response": "Beta"}, "64": {"stimulus": 9, "trial": 64, "rt": 1194, "response": "Beta"}, "49": {"stimulus": 53, "trial": 49, "rt": 767, "response": "Beta"}, "66": {"stimulus": 31, "trial": 66, "rt": 857, "response": "Beta"}, "67": {"stimulus": 76, "trial": 67, "rt": 847, "response": "Alpha"}, "68": {"stimulus": 66, "trial": 68, "rt": 847, "response": "Beta"}, "69": {"stimulus": 21, "trial": 69, "rt": 907, "response": "Beta"}, "80": {"stimulus": 34, "trial": 80, "rt": 906, "response": "Beta"}, "52": {"stimulus": 47, "trial": 52, "rt": 611, "response": "Beta"}, "53": {"stimulus": 56, "trial": 53, "rt": 720, "response": "Beta"}, "24": {"stimulus": 52, "trial": 24, "rt": 967, "response": "Beta"}, "25": {"stimulus": 20, "trial": 25, "rt": 967, "response": "Beta"}, "26": {"stimulus": 22, "trial": 26, "rt": 1064, "response": "Beta"}, "27": {"stimulus": 6, "trial": 27, "rt": 1055, "response": "Alpha"}, "20": {"stimulus": 49, "trial": 20, "rt": 896, "response": "Beta"}, "21": {"stimulus": 38, "trial": 21, "rt": 1074, "response": "Beta"}, "22": {"stimulus": 41, "trial": 22, "rt": 650, "response": "Beta"}, "23": {"stimulus": 77, "trial": 23, "rt": 1213, "response": "Alpha"}, "46": {"stimulus": 79, "trial": 46, "rt": 946, "response": "Alpha"}, "47": {"stimulus": 72, "trial": 47, "rt": 4543, "response": "Alpha"}, "44": {"stimulus": 2, "trial": 44, "rt": 579, "response": "Alpha"}, "45": {"stimulus": 61, "trial": 45, "rt": 847, "response": "Beta"}, "28": {"stimulus": 13, "trial": 28, "rt": 1057, "response": "Beta"}, "29": {"stimulus": 59, "trial": 29, "rt": 1284, "response": "Beta"}, "40": {"stimulus": 60, "trial": 40, "rt": 2331, "response": "Beta"}, "41": {"stimulus": 64, "trial": 41, "rt": 925, "response": "Beta"}, "1": {"stimulus": 16, "trial": 1, "rt": 3551, "response": "Beta"}, "0": {"stimulus": 63, "trial": 0, "rt": 1868, "response": "Beta"}, "3": {"stimulus": 17, "trial": 3, "rt": 1826, "response": "Beta"}, "2": {"stimulus": 50, "trial": 2, "rt": 2135, "response": "Beta"}, "5": {"stimulus": 30, "trial": 5, "rt": 2006, "response": "Beta"}, "4": {"stimulus": 74, "trial": 4, "rt": 1015, "response": "Alpha"}, "7": {"stimulus": 11, "trial": 7, "rt": 1461, "response": "Beta"}, "6": {"stimulus": 19, "trial": 6, "rt": 2834, "response": "Beta"}, "9": {"stimulus": 54, "trial": 9, "rt": 955, "response": "Beta"}, "8": {"stimulus": 78, "trial": 8, "rt": 858, "response": "Alpha"}, "78": {"stimulus": 10, "trial": 78, "rt": 917, "response": "Beta"}, "51": {"stimulus": 70, "trial": 51, "rt": 998, "response": "Beta"}, "39": {"stimulus": 62, "trial": 39, "rt": 719, "response": "Beta"}, "65": {"stimulus": 23, "trial": 65, "rt": 826, "response": "Beta"}, "76": {"stimulus": 42, "trial": 76, "rt": 1382, "response": "Beta"}, "75": {"stimulus": 8, "trial": 75, "rt": 788, "response": "Alpha"}, "38": {"stimulus": 71, "trial": 38, "rt": 1294, "response": "Beta"}, "73": {"stimulus": 3, "trial": 73, "rt": 1095, "response": "Alpha"}, "72": {"stimulus": 29, "trial": 72, "rt": 1234, "response": "Beta"}, "71": {"stimulus": 65, "trial": 71, "rt": 1669, "response": "Beta"}, "70": {"stimulus": 25, "trial": 70, "rt": 1453, "response": "Beta"}, "59": {"stimulus": 40, "trial": 59, "rt": 884, "response": "Beta"}, "79": {"stimulus": 69, "trial": 79, "rt": 1242, "response": "Beta"}, "58": {"stimulus": 75, "trial": 58, "rt": 768, "response": "Alpha"}, "11": {"stimulus": 28, "trial": 11, "rt": 1234, "response": "Beta"}, "10": {"stimulus": 73, "trial": 10, "rt": 1065, "response": "Alpha"}, "13": {"stimulus": 80, "trial": 13, "rt": 835, "response": "Alpha"}, "12": {"stimulus": 18, "trial": 12, "rt": 807, "response": "Beta"}, "15": {"stimulus": 5, "trial": 15, "rt": 859, "response": "Alpha"}, "14": {"stimulus": 15, "trial": 14, "rt": 996, "response": "Beta"}, "17": {"stimulus": 68, "trial": 17, "rt": 825, "response": "Beta"}, "16": {"stimulus": 26, "trial": 16, "rt": 956, "response": "Beta"}, "19": {"stimulus": 48, "trial": 19, "rt": 758, "response": "Beta"}, "18": {"stimulus": 4, "trial": 18, "rt": 726, "response": "Alpha"}, "31": {"stimulus": 35, "trial": 31, "rt": 1273, "response": "Beta"}, "30": {"stimulus": 43, "trial": 30, "rt": 777, "response": "Beta"}, "37": {"stimulus": 57, "trial": 37, "rt": 1351, "response": "Beta"}, "36": {"stimulus": 1, "trial": 36, "rt": 1045, "response": "Alpha"}, "35": {"stimulus": 0, "trial": 35, "rt": 925, "response": "Alpha"}, "34": {"stimulus": 44, "trial": 34, "rt": 779, "response": "Beta"}, "33": {"stimulus": 24, "trial": 33, "rt": 717, "response": "Beta"}, "55": {"stimulus": 7, "trial": 55, "rt": 829, "response": "Alpha"}, "74": {"stimulus": 33, "trial": 74, "rt": 878, "response": "Beta"}, "32": {"stimulus": 45, "trial": 32, "rt": 708, "response": "Beta"}, "57": {"stimulus": 32, "trial": 57, "rt": 857, "response": "Beta"}, "50": {"stimulus": 27, "trial": 50, "rt": 849, "response": "Beta"}}, "experiment": {"Paradigm": "TACL", "Stimuli": "Size-Color Squares and Size-Orientation Circles", "Experiment": "Generating-Multiple-Categories"}, "submit": {"timeTotal": 318149, "age": "30", "comments": "Everything was very straightforward and easy to understand.", "sex": "Female"}}