{"info": {"finish": 1554545418671, "participant": 121, "exposed": true, "lab": false, "start": 1554544309855, "counterbalance": 5, "stimtype": "Squares", "gentype": 1, "condition": "Corner_S", "browser": {"platform": "Win32", "userAgent": "Mozilla/5.0 (Windows NT 6.1) AppleWebKit/537.36 (KHTML, like Gecko) Chrome/73.0.3683.86 Safari/537.36"}}, "observation": {"11": {"stimulus": 80, "trial": 11, "rt": 1749}, "10": {"stimulus": 8, "trial": 10, "rt": 1503}, "1": {"stimulus": 80, "trial": 1, "rt": 18405}, "0": {"stimulus": 0, "trial": 0, "rt": 5900}, "3": {"stimulus": 72, "trial": 3, "rt": 2135}, "2": {"stimulus": 8, "trial": 2, "rt": 5182}, "5": {"stimulus": 72, "trial": 5, "rt": 2071}, "4": {"stimulus": 0, "trial": 4, "rt": 2071}, "7": {"stimulus": 80, "trial": 7, "rt": 2470}, "6": {"stimulus": 8, "trial": 6, "rt": 2262}, "9": {"stimulus": 0, "trial": 9, "rt": 1638}, "8": {"stimulus": 72, "trial": 8, "rt": 1727}}, "generation": {"1": {"category": "Beta", "trial": 1, "stimulus": 18, "rt": 12916}, "0": {"category": "Beta", "trial": 0, "stimulus": 59, "rt": 10419}, "3": {"category": "Beta", "trial": 3, "stimulus": 47, "rt": 4469}, "2": {"category": "Beta", "trial": 2, "stimulus": 73, "rt": 7460}}, "generalization": {"56": {"stimulus": 16, "trial": 56, "rt": 5022, "response": "Beta"}, "77": {"stimulus": 57, "trial": 77, "rt": 2446, "response": "Beta"}, "54": {"stimulus": 28, "trial": 54, "rt": 718, "response": "Alpha"}, "42": {"stimulus": 24, "trial": 42, "rt": 1607, "response": "Beta"}, "48": {"stimulus": 13, "trial": 48, "rt": 12679, "response": "Beta"}, "43": {"stimulus": 64, "trial": 43, "rt": 1184, "response": "Alpha"}, "60": {"stimulus": 3, "trial": 60, "rt": 982, "response": "Beta"}, "61": {"stimulus": 41, "trial": 61, "rt": 1023, "response": "Alpha"}, "62": {"stimulus": 46, "trial": 62, "rt": 1398, "response": "Alpha"}, "63": {"stimulus": 67, "trial": 63, "rt": 1133, "response": "Beta"}, "64": {"stimulus": 44, "trial": 64, "rt": 3118, "response": "Alpha"}, "49": {"stimulus": 20, "trial": 49, "rt": 7742, "response": "Beta"}, "66": {"stimulus": 9, "trial": 66, "rt": 1142, "response": "Alpha"}, "67": {"stimulus": 33, "trial": 67, "rt": 1550, "response": "Beta"}, "68": {"stimulus": 70, "trial": 68, "rt": 830, "response": "Alpha"}, "69": {"stimulus": 30, "trial": 69, "rt": 2006, "response": "Beta"}, "80": {"stimulus": 42, "trial": 80, "rt": 710, "response": "Beta"}, "52": {"stimulus": 0, "trial": 52, "rt": 1021, "response": "Alpha"}, "53": {"stimulus": 32, "trial": 53, "rt": 1133, "response": "Alpha"}, "24": {"stimulus": 78, "trial": 24, "rt": 758, "response": "Alpha"}, "25": {"stimulus": 56, "trial": 25, "rt": 1518, "response": "Beta"}, "26": {"stimulus": 23, "trial": 26, "rt": 990, "response": "Alpha"}, "27": {"stimulus": 65, "trial": 27, "rt": 846, "response": "Beta"}, "20": {"stimulus": 1, "trial": 20, "rt": 871, "response": "Alpha"}, "21": {"stimulus": 50, "trial": 21, "rt": 1038, "response": "Beta"}, "22": {"stimulus": 11, "trial": 22, "rt": 10319, "response": "Beta"}, "23": {"stimulus": 79, "trial": 23, "rt": 2150, "response": "Alpha"}, "46": {"stimulus": 63, "trial": 46, "rt": 1198, "response": "Alpha"}, "47": {"stimulus": 27, "trial": 47, "rt": 14695, "response": "Alpha"}, "44": {"stimulus": 18, "trial": 44, "rt": 10885, "response": "Alpha"}, "45": {"stimulus": 49, "trial": 45, "rt": 6189, "response": "Beta"}, "28": {"stimulus": 62, "trial": 28, "rt": 734, "response": "Alpha"}, "29": {"stimulus": 0, "trial": 29, "rt": 2335, "response": "Beta"}, "40": {"stimulus": 58, "trial": 40, "rt": 23038, "response": "Beta"}, "41": {"stimulus": 55, "trial": 41, "rt": 3783, "response": "Alpha"}, "1": {"stimulus": 19, "trial": 1, "rt": 1693, "response": "Beta"}, "0": {"stimulus": 35, "trial": 0, "rt": 3046, "response": "Alpha"}, "3": {"stimulus": 37, "trial": 3, "rt": 2189, "response": "Alpha"}, "2": {"stimulus": 14, "trial": 2, "rt": 1078, "response": "Alpha"}, "5": {"stimulus": 45, "trial": 5, "rt": 895, "response": "Beta"}, "4": {"stimulus": 4, "trial": 4, "rt": 1968, "response": "Alpha"}, "7": {"stimulus": 25, "trial": 7, "rt": 926, "response": "Alpha"}, "6": {"stimulus": 34, "trial": 6, "rt": 1590, "response": "Alpha"}, "9": {"stimulus": 68, "trial": 9, "rt": 1302, "response": "Alpha"}, "8": {"stimulus": 10, "trial": 8, "rt": 2766, "response": "Alpha"}, "78": {"stimulus": 59, "trial": 78, "rt": 1166, "response": "Beta"}, "51": {"stimulus": 5, "trial": 51, "rt": 959, "response": "Beta"}, "39": {"stimulus": 54, "trial": 39, "rt": 942, "response": "Alpha"}, "65": {"stimulus": 61, "trial": 65, "rt": 902, "response": "Alpha"}, "76": {"stimulus": 12, "trial": 76, "rt": 1078, "response": "Alpha"}, "75": {"stimulus": 48, "trial": 75, "rt": 1462, "response": "Beta"}, "38": {"stimulus": 47, "trial": 38, "rt": 646, "response": "Alpha"}, "73": {"stimulus": 51, "trial": 73, "rt": 1765, "response": "Beta"}, "72": {"stimulus": 71, "trial": 72, "rt": 2501, "response": "Alpha"}, "71": {"stimulus": 8, "trial": 71, "rt": 6032, "response": "Beta"}, "70": {"stimulus": 69, "trial": 70, "rt": 3135, "response": "Alpha"}, "59": {"stimulus": 52, "trial": 59, "rt": 1062, "response": "Alpha"}, "79": {"stimulus": 36, "trial": 79, "rt": 1238, "response": "Alpha"}, "58": {"stimulus": 17, "trial": 58, "rt": 991, "response": "Beta"}, "11": {"stimulus": 74, "trial": 11, "rt": 742, "response": "Beta"}, "10": {"stimulus": 73, "trial": 10, "rt": 1294, "response": "Alpha"}, "13": {"stimulus": 77, "trial": 13, "rt": 2287, "response": "Beta"}, "12": {"stimulus": 53, "trial": 12, "rt": 870, "response": "Alpha"}, "15": {"stimulus": 7, "trial": 15, "rt": 4527, "response": "Beta"}, "14": {"stimulus": 15, "trial": 14, "rt": 838, "response": "Alpha"}, "17": {"stimulus": 6, "trial": 17, "rt": 1341, "response": "Beta"}, "16": {"stimulus": 2, "trial": 16, "rt": 1199, "response": "Alpha"}, "19": {"stimulus": 66, "trial": 19, "rt": 2975, "response": "Alpha"}, "18": {"stimulus": 80, "trial": 18, "rt": 1335, "response": "Alpha"}, "31": {"stimulus": 76, "trial": 31, "rt": 1293, "response": "Beta"}, "30": {"stimulus": 31, "trial": 30, "rt": 950, "response": "Alpha"}, "37": {"stimulus": 26, "trial": 37, "rt": 1134, "response": "Beta"}, "36": {"stimulus": 21, "trial": 36, "rt": 774, "response": "Beta"}, "35": {"stimulus": 40, "trial": 35, "rt": 622, "response": "Alpha"}, "34": {"stimulus": 22, "trial": 34, "rt": 1295, "response": "Beta"}, "33": {"stimulus": 75, "trial": 33, "rt": 1294, "response": "Beta"}, "55": {"stimulus": 60, "trial": 55, "rt": 814, "response": "Alpha"}, "74": {"stimulus": 72, "trial": 74, "rt": 854, "response": "Alpha"}, "32": {"stimulus": 43, "trial": 32, "rt": 1133, "response": "Alpha"}, "57": {"stimulus": 29, "trial": 57, "rt": 1335, "response": "Alpha"}, "50": {"stimulus": 38, "trial": 50, "rt": 1317, "response": "Alpha"}}, "experiment": {"Paradigm": "TACL", "Stimuli": "Size-Color Squares and Size-Orientation Circles", "Experiment": "Generating-Multiple-Categories"}, "submit": {"timeTotal": 1110220, "age": "29", "comments": "good", "sex": "male"}}