{"info": {"finish": 1554544730155, "participant": 122, "exposed": true, "lab": false, "start": 1554544397954, "counterbalance": 2, "stimtype": "Squares", "gentype": 1, "condition": "Corner_S", "browser": {"platform": "Win32", "userAgent": "Mozilla/5.0 (Windows NT 6.3; Win64; x64) AppleWebKit/537.36 (KHTML, like Gecko) Chrome/73.0.3683.86 Safari/537.36"}}, "observation": {"11": {"stimulus": 8, "trial": 11, "rt": 2318}, "10": {"stimulus": 72, "trial": 10, "rt": 1299}, "1": {"stimulus": 72, "trial": 1, "rt": 2400}, "0": {"stimulus": 8, "trial": 0, "rt": 2488}, "3": {"stimulus": 80, "trial": 3, "rt": 2103}, "2": {"stimulus": 0, "trial": 2, "rt": 1940}, "5": {"stimulus": 8, "trial": 5, "rt": 1907}, "4": {"stimulus": 0, "trial": 4, "rt": 2209}, "7": {"stimulus": 80, "trial": 7, "rt": 1411}, "6": {"stimulus": 72, "trial": 6, "rt": 1539}, "9": {"stimulus": 0, "trial": 9, "rt": 1761}, "8": {"stimulus": 80, "trial": 8, "rt": 1754}}, "generation": {"1": {"category": "Beta", "trial": 1, "stimulus": 64, "rt": 8144}, "0": {"category": "Beta", "trial": 0, "stimulus": 33, "rt": 25989}, "3": {"category": "Beta", "trial": 3, "stimulus": 19, "rt": 4713}, "2": {"category": "Beta", "trial": 2, "stimulus": 69, "rt": 6159}}, "generalization": {"56": {"stimulus": 24, "trial": 56, "rt": 980, "response": "Beta"}, "77": {"stimulus": 52, "trial": 77, "rt": 755, "response": "Alpha"}, "54": {"stimulus": 67, "trial": 54, "rt": 1068, "response": "Beta"}, "42": {"stimulus": 3, "trial": 42, "rt": 625, "response": "Alpha"}, "48": {"stimulus": 27, "trial": 48, "rt": 1305, "response": "Beta"}, "43": {"stimulus": 19, "trial": 43, "rt": 1392, "response": "Beta"}, "60": {"stimulus": 8, "trial": 60, "rt": 1585, "response": "Alpha"}, "61": {"stimulus": 38, "trial": 61, "rt": 968, "response": "Beta"}, "62": {"stimulus": 76, "trial": 62, "rt": 936, "response": "Beta"}, "63": {"stimulus": 55, "trial": 63, "rt": 10015, "response": "Beta"}, "64": {"stimulus": 36, "trial": 64, "rt": 1259, "response": "Alpha"}, "49": {"stimulus": 64, "trial": 49, "rt": 889, "response": "Beta"}, "66": {"stimulus": 73, "trial": 66, "rt": 691, "response": "Beta"}, "67": {"stimulus": 57, "trial": 67, "rt": 717, "response": "Beta"}, "68": {"stimulus": 40, "trial": 68, "rt": 939, "response": "Alpha"}, "69": {"stimulus": 45, "trial": 69, "rt": 658, "response": "Beta"}, "80": {"stimulus": 20, "trial": 80, "rt": 1078, "response": "Beta"}, "52": {"stimulus": 16, "trial": 52, "rt": 568, "response": "Alpha"}, "53": {"stimulus": 35, "trial": 53, "rt": 859, "response": "Alpha"}, "24": {"stimulus": 60, "trial": 24, "rt": 1299, "response": "Beta"}, "25": {"stimulus": 29, "trial": 25, "rt": 1158, "response": "Beta"}, "26": {"stimulus": 80, "trial": 26, "rt": 996, "response": "Alpha"}, "27": {"stimulus": 9, "trial": 27, "rt": 759, "response": "Alpha"}, "20": {"stimulus": 53, "trial": 20, "rt": 6576, "response": "Beta"}, "21": {"stimulus": 43, "trial": 21, "rt": 950, "response": "Alpha"}, "22": {"stimulus": 70, "trial": 22, "rt": 988, "response": "Beta"}, "23": {"stimulus": 61, "trial": 23, "rt": 523, "response": "Beta"}, "46": {"stimulus": 41, "trial": 46, "rt": 983, "response": "Alpha"}, "47": {"stimulus": 58, "trial": 47, "rt": 750, "response": "Beta"}, "44": {"stimulus": 17, "trial": 44, "rt": 872, "response": "Alpha"}, "45": {"stimulus": 33, "trial": 45, "rt": 1422, "response": "Alpha"}, "28": {"stimulus": 42, "trial": 28, "rt": 919, "response": "Beta"}, "29": {"stimulus": 15, "trial": 29, "rt": 611, "response": "Alpha"}, "40": {"stimulus": 18, "trial": 40, "rt": 1435, "response": "Beta"}, "41": {"stimulus": 51, "trial": 41, "rt": 1667, "response": "Alpha"}, "1": {"stimulus": 59, "trial": 1, "rt": 1358, "response": "Beta"}, "0": {"stimulus": 47, "trial": 0, "rt": 2350, "response": "Beta"}, "3": {"stimulus": 54, "trial": 3, "rt": 1090, "response": "Beta"}, "2": {"stimulus": 63, "trial": 2, "rt": 1581, "response": "Beta"}, "5": {"stimulus": 10, "trial": 5, "rt": 714, "response": "Alpha"}, "4": {"stimulus": 32, "trial": 4, "rt": 2058, "response": "Beta"}, "7": {"stimulus": 30, "trial": 7, "rt": 1114, "response": "Beta"}, "6": {"stimulus": 14, "trial": 6, "rt": 792, "response": "Alpha"}, "9": {"stimulus": 66, "trial": 9, "rt": 1533, "response": "Beta"}, "8": {"stimulus": 44, "trial": 8, "rt": 786, "response": "Beta"}, "78": {"stimulus": 0, "trial": 78, "rt": 682, "response": "Alpha"}, "51": {"stimulus": 62, "trial": 51, "rt": 923, "response": "Beta"}, "39": {"stimulus": 48, "trial": 39, "rt": 1448, "response": "Beta"}, "65": {"stimulus": 46, "trial": 65, "rt": 647, "response": "Beta"}, "76": {"stimulus": 78, "trial": 76, "rt": 1149, "response": "Beta"}, "75": {"stimulus": 72, "trial": 75, "rt": 1473, "response": "Beta"}, "38": {"stimulus": 2, "trial": 38, "rt": 778, "response": "Alpha"}, "73": {"stimulus": 11, "trial": 73, "rt": 550, "response": "Alpha"}, "72": {"stimulus": 74, "trial": 72, "rt": 717, "response": "Alpha"}, "71": {"stimulus": 75, "trial": 71, "rt": 448, "response": "Alpha"}, "70": {"stimulus": 0, "trial": 70, "rt": 4985, "response": "Beta"}, "59": {"stimulus": 13, "trial": 59, "rt": 1584, "response": "Alpha"}, "79": {"stimulus": 5, "trial": 79, "rt": 803, "response": "Alpha"}, "58": {"stimulus": 28, "trial": 58, "rt": 26719, "response": "Beta"}, "11": {"stimulus": 22, "trial": 11, "rt": 1890, "response": "Beta"}, "10": {"stimulus": 71, "trial": 10, "rt": 852, "response": "Beta"}, "13": {"stimulus": 50, "trial": 13, "rt": 1066, "response": "Alpha"}, "12": {"stimulus": 69, "trial": 12, "rt": 2228, "response": "Beta"}, "15": {"stimulus": 25, "trial": 15, "rt": 1717, "response": "Beta"}, "14": {"stimulus": 34, "trial": 14, "rt": 763, "response": "Alpha"}, "17": {"stimulus": 79, "trial": 17, "rt": 1626, "response": "Beta"}, "16": {"stimulus": 12, "trial": 16, "rt": 651, "response": "Alpha"}, "19": {"stimulus": 7, "trial": 19, "rt": 1290, "response": "Beta"}, "18": {"stimulus": 31, "trial": 18, "rt": 1662, "response": "Alpha"}, "31": {"stimulus": 49, "trial": 31, "rt": 1358, "response": "Beta"}, "30": {"stimulus": 21, "trial": 30, "rt": 1480, "response": "Beta"}, "37": {"stimulus": 68, "trial": 37, "rt": 1614, "response": "Alpha"}, "36": {"stimulus": 4, "trial": 36, "rt": 1200, "response": "Alpha"}, "35": {"stimulus": 26, "trial": 35, "rt": 1502, "response": "Beta"}, "34": {"stimulus": 56, "trial": 34, "rt": 1073, "response": "Beta"}, "33": {"stimulus": 1, "trial": 33, "rt": 1083, "response": "Alpha"}, "55": {"stimulus": 65, "trial": 55, "rt": 709, "response": "Beta"}, "74": {"stimulus": 77, "trial": 74, "rt": 686, "response": "Beta"}, "32": {"stimulus": 37, "trial": 32, "rt": 698, "response": "Beta"}, "57": {"stimulus": 23, "trial": 57, "rt": 1930, "response": "Beta"}, "50": {"stimulus": 6, "trial": 50, "rt": 1260, "response": "Alpha"}}, "experiment": {"Paradigm": "TACL", "Stimuli": "Size-Color Squares and Size-Orientation Circles", "Experiment": "Generating-Multiple-Categories"}, "submit": {"timeTotal": 332428, "age": "31", "comments": "This was pretty difficult.", "sex": "male"}}