{"info": {"finish": 1554544736385, "participant": 123, "exposed": true, "lab": false, "start": 1554544421681, "counterbalance": 5, "stimtype": "Circles", "gentype": 1, "condition": "Corner_C", "browser": {"platform": "Win32", "userAgent": "Mozilla/5.0 (Windows NT 6.1; Win64; x64) AppleWebKit/537.36 (KHTML, like Gecko) Chrome/73.0.3683.86 Safari/537.36"}}, "observation": {"11": {"stimulus": 8, "trial": 11, "rt": 1701}, "10": {"stimulus": 72, "trial": 10, "rt": 4381}, "1": {"stimulus": 0, "trial": 1, "rt": 1744}, "0": {"stimulus": 72, "trial": 0, "rt": 8392}, "3": {"stimulus": 80, "trial": 3, "rt": 1522}, "2": {"stimulus": 8, "trial": 2, "rt": 1737}, "5": {"stimulus": 80, "trial": 5, "rt": 1799}, "4": {"stimulus": 8, "trial": 4, "rt": 3094}, "7": {"stimulus": 0, "trial": 7, "rt": 1923}, "6": {"stimulus": 72, "trial": 6, "rt": 1506}, "9": {"stimulus": 0, "trial": 9, "rt": 1846}, "8": {"stimulus": 80, "trial": 8, "rt": 2600}}, "generation": {"1": {"category": "Beta", "trial": 1, "stimulus": 59, "rt": 7071}, "0": {"category": "Beta", "trial": 0, "stimulus": 50, "rt": 15129}, "3": {"category": "Beta", "trial": 3, "stimulus": 57, "rt": 32471}, "2": {"category": "Beta", "trial": 2, "stimulus": 58, "rt": 5767}}, "generalization": {"56": {"stimulus": 35, "trial": 56, "rt": 965, "response": "Alpha"}, "77": {"stimulus": 20, "trial": 77, "rt": 483, "response": "Alpha"}, "54": {"stimulus": 14, "trial": 54, "rt": 955, "response": "Beta"}, "42": {"stimulus": 40, "trial": 42, "rt": 1195, "response": "Beta"}, "48": {"stimulus": 12, "trial": 48, "rt": 1125, "response": "Beta"}, "43": {"stimulus": 53, "trial": 43, "rt": 1062, "response": "Alpha"}, "60": {"stimulus": 27, "trial": 60, "rt": 635, "response": "Alpha"}, "61": {"stimulus": 46, "trial": 61, "rt": 692, "response": "Alpha"}, "62": {"stimulus": 38, "trial": 62, "rt": 596, "response": "Alpha"}, "63": {"stimulus": 60, "trial": 63, "rt": 875, "response": "Alpha"}, "64": {"stimulus": 1, "trial": 64, "rt": 1186, "response": "Beta"}, "49": {"stimulus": 7, "trial": 49, "rt": 801, "response": "Alpha"}, "66": {"stimulus": 9, "trial": 66, "rt": 1072, "response": "Alpha"}, "67": {"stimulus": 52, "trial": 67, "rt": 674, "response": "Alpha"}, "68": {"stimulus": 55, "trial": 68, "rt": 1192, "response": "Beta"}, "69": {"stimulus": 29, "trial": 69, "rt": 939, "response": "Beta"}, "80": {"stimulus": 75, "trial": 80, "rt": 1460, "response": "Beta"}, "52": {"stimulus": 19, "trial": 52, "rt": 992, "response": "Beta"}, "53": {"stimulus": 74, "trial": 53, "rt": 440, "response": "Alpha"}, "24": {"stimulus": 51, "trial": 24, "rt": 832, "response": "Alpha"}, "25": {"stimulus": 13, "trial": 25, "rt": 1046, "response": "Beta"}, "26": {"stimulus": 66, "trial": 26, "rt": 910, "response": "Beta"}, "27": {"stimulus": 30, "trial": 27, "rt": 833, "response": "Beta"}, "20": {"stimulus": 28, "trial": 20, "rt": 1088, "response": "Beta"}, "21": {"stimulus": 59, "trial": 21, "rt": 1052, "response": "Beta"}, "22": {"stimulus": 41, "trial": 22, "rt": 1076, "response": "Alpha"}, "23": {"stimulus": 54, "trial": 23, "rt": 1760, "response": "Alpha"}, "46": {"stimulus": 76, "trial": 46, "rt": 2088, "response": "Beta"}, "47": {"stimulus": 64, "trial": 47, "rt": 1151, "response": "Beta"}, "44": {"stimulus": 22, "trial": 44, "rt": 1247, "response": "Beta"}, "45": {"stimulus": 62, "trial": 45, "rt": 1792, "response": "Alpha"}, "28": {"stimulus": 71, "trial": 28, "rt": 929, "response": "Alpha"}, "29": {"stimulus": 0, "trial": 29, "rt": 2205, "response": "Beta"}, "40": {"stimulus": 69, "trial": 40, "rt": 714, "response": "Alpha"}, "41": {"stimulus": 61, "trial": 41, "rt": 916, "response": "Alpha"}, "1": {"stimulus": 68, "trial": 1, "rt": 1389, "response": "Beta"}, "0": {"stimulus": 70, "trial": 0, "rt": 2232, "response": "Beta"}, "3": {"stimulus": 56, "trial": 3, "rt": 969, "response": "Alpha"}, "2": {"stimulus": 72, "trial": 2, "rt": 955, "response": "Alpha"}, "5": {"stimulus": 21, "trial": 5, "rt": 949, "response": "Beta"}, "4": {"stimulus": 47, "trial": 4, "rt": 990, "response": "Beta"}, "7": {"stimulus": 43, "trial": 7, "rt": 1099, "response": "Alpha"}, "6": {"stimulus": 63, "trial": 6, "rt": 1011, "response": "Alpha"}, "9": {"stimulus": 42, "trial": 9, "rt": 873, "response": "Alpha"}, "8": {"stimulus": 50, "trial": 8, "rt": 1257, "response": "Beta"}, "78": {"stimulus": 67, "trial": 78, "rt": 5666, "response": "Beta"}, "51": {"stimulus": 32, "trial": 51, "rt": 1133, "response": "Beta"}, "39": {"stimulus": 15, "trial": 39, "rt": 1124, "response": "Alpha"}, "65": {"stimulus": 78, "trial": 65, "rt": 2179, "response": "Alpha"}, "76": {"stimulus": 36, "trial": 76, "rt": 2406, "response": "Alpha"}, "75": {"stimulus": 0, "trial": 75, "rt": 606, "response": "Alpha"}, "38": {"stimulus": 57, "trial": 38, "rt": 3045, "response": "Beta"}, "73": {"stimulus": 5, "trial": 73, "rt": 482, "response": "Alpha"}, "72": {"stimulus": 37, "trial": 72, "rt": 2096, "response": "Beta"}, "71": {"stimulus": 49, "trial": 71, "rt": 2473, "response": "Beta"}, "70": {"stimulus": 26, "trial": 70, "rt": 797, "response": "Alpha"}, "59": {"stimulus": 16, "trial": 59, "rt": 989, "response": "Alpha"}, "79": {"stimulus": 65, "trial": 79, "rt": 3570, "response": "Alpha"}, "58": {"stimulus": 3, "trial": 58, "rt": 1148, "response": "Alpha"}, "11": {"stimulus": 79, "trial": 11, "rt": 1080, "response": "Alpha"}, "10": {"stimulus": 73, "trial": 10, "rt": 1430, "response": "Beta"}, "13": {"stimulus": 34, "trial": 13, "rt": 963, "response": "Alpha"}, "12": {"stimulus": 8, "trial": 12, "rt": 554, "response": "Alpha"}, "15": {"stimulus": 23, "trial": 15, "rt": 826, "response": "Beta"}, "14": {"stimulus": 77, "trial": 14, "rt": 617, "response": "Alpha"}, "17": {"stimulus": 25, "trial": 17, "rt": 657, "response": "Alpha"}, "16": {"stimulus": 6, "trial": 16, "rt": 1147, "response": "Alpha"}, "19": {"stimulus": 80, "trial": 19, "rt": 882, "response": "Alpha"}, "18": {"stimulus": 11, "trial": 18, "rt": 1059, "response": "Beta"}, "31": {"stimulus": 33, "trial": 31, "rt": 987, "response": "Alpha"}, "30": {"stimulus": 2, "trial": 30, "rt": 1181, "response": "Beta"}, "37": {"stimulus": 24, "trial": 37, "rt": 2364, "response": "Alpha"}, "36": {"stimulus": 10, "trial": 36, "rt": 1197, "response": "Alpha"}, "35": {"stimulus": 31, "trial": 35, "rt": 1121, "response": "Beta"}, "34": {"stimulus": 44, "trial": 34, "rt": 997, "response": "Alpha"}, "33": {"stimulus": 58, "trial": 33, "rt": 1356, "response": "Beta"}, "55": {"stimulus": 48, "trial": 55, "rt": 1027, "response": "Beta"}, "74": {"stimulus": 18, "trial": 74, "rt": 2916, "response": "Alpha"}, "32": {"stimulus": 4, "trial": 32, "rt": 1264, "response": "Beta"}, "57": {"stimulus": 17, "trial": 57, "rt": 925, "response": "Alpha"}, "50": {"stimulus": 45, "trial": 50, "rt": 708, "response": "Alpha"}}, "experiment": {"Paradigm": "TACL", "Stimuli": "Size-Color Squares and Size-Orientation Circles", "Experiment": "Generating-Multiple-Categories"}, "submit": {"timeTotal": 316039, "age": "40", "comments": "Interesting.", "sex": "Female"}}