{"info": {"finish": 1554545529042, "participant": 124, "exposed": true, "lab": false, "start": 1554544674054, "counterbalance": 7, "stimtype": "Squares", "gentype": 1, "condition": "Corner_S", "browser": {"platform": "Win32", "userAgent": "Mozilla/5.0 (Windows NT 6.3; Win64; x64) AppleWebKit/537.36 (KHTML, like Gecko) Chrome/73.0.3683.86 Safari/537.36"}}, "observation": {"11": {"stimulus": 72, "trial": 11, "rt": 2658}, "10": {"stimulus": 8, "trial": 10, "rt": 2472}, "1": {"stimulus": 72, "trial": 1, "rt": 3742}, "0": {"stimulus": 80, "trial": 0, "rt": 5812}, "3": {"stimulus": 8, "trial": 3, "rt": 2938}, "2": {"stimulus": 0, "trial": 2, "rt": 2378}, "5": {"stimulus": 8, "trial": 5, "rt": 2305}, "4": {"stimulus": 0, "trial": 4, "rt": 2438}, "7": {"stimulus": 80, "trial": 7, "rt": 2972}, "6": {"stimulus": 72, "trial": 6, "rt": 1771}, "9": {"stimulus": 80, "trial": 9, "rt": 2686}, "8": {"stimulus": 0, "trial": 8, "rt": 2830}}, "generation": {"1": {"category": "Beta", "trial": 1, "stimulus": 29, "rt": 9472}, "0": {"category": "Beta", "trial": 0, "stimulus": 20, "rt": 6816}, "3": {"category": "Beta", "trial": 3, "stimulus": 11, "rt": 6118}, "2": {"category": "Beta", "trial": 2, "stimulus": 12, "rt": 7732}}, "generalization": {"56": {"stimulus": 31, "trial": 56, "rt": 3043, "response": "Alpha"}, "77": {"stimulus": 53, "trial": 77, "rt": 3790, "response": "Beta"}, "54": {"stimulus": 5, "trial": 54, "rt": 1575, "response": "Alpha"}, "42": {"stimulus": 30, "trial": 42, "rt": 3807, "response": "Alpha"}, "48": {"stimulus": 24, "trial": 48, "rt": 3010, "response": "Beta"}, "43": {"stimulus": 61, "trial": 43, "rt": 3171, "response": "Beta"}, "60": {"stimulus": 72, "trial": 60, "rt": 2100, "response": "Alpha"}, "61": {"stimulus": 9, "trial": 61, "rt": 2588, "response": "Alpha"}, "62": {"stimulus": 0, "trial": 62, "rt": 1879, "response": "Alpha"}, "63": {"stimulus": 67, "trial": 63, "rt": 2050, "response": "Alpha"}, "64": {"stimulus": 18, "trial": 64, "rt": 2328, "response": "Alpha"}, "49": {"stimulus": 77, "trial": 49, "rt": 1610, "response": "Beta"}, "66": {"stimulus": 55, "trial": 66, "rt": 1499, "response": "Alpha"}, "67": {"stimulus": 8, "trial": 67, "rt": 1619, "response": "Beta"}, "68": {"stimulus": 3, "trial": 68, "rt": 2344, "response": "Alpha"}, "69": {"stimulus": 58, "trial": 69, "rt": 2297, "response": "Alpha"}, "80": {"stimulus": 21, "trial": 80, "rt": 2462, "response": "Alpha"}, "52": {"stimulus": 78, "trial": 52, "rt": 5598, "response": "Beta"}, "53": {"stimulus": 10, "trial": 53, "rt": 2068, "response": "Alpha"}, "24": {"stimulus": 80, "trial": 24, "rt": 2210, "response": "Alpha"}, "25": {"stimulus": 19, "trial": 25, "rt": 2299, "response": "Alpha"}, "26": {"stimulus": 35, "trial": 26, "rt": 1740, "response": "Alpha"}, "27": {"stimulus": 22, "trial": 27, "rt": 1790, "response": "Alpha"}, "20": {"stimulus": 70, "trial": 20, "rt": 2128, "response": "Alpha"}, "21": {"stimulus": 71, "trial": 21, "rt": 2608, "response": "Beta"}, "22": {"stimulus": 44, "trial": 22, "rt": 1622, "response": "Beta"}, "23": {"stimulus": 75, "trial": 23, "rt": 1988, "response": "Alpha"}, "46": {"stimulus": 54, "trial": 46, "rt": 2272, "response": "Alpha"}, "47": {"stimulus": 43, "trial": 47, "rt": 3246, "response": "Beta"}, "44": {"stimulus": 14, "trial": 44, "rt": 2469, "response": "Alpha"}, "45": {"stimulus": 46, "trial": 45, "rt": 3008, "response": "Alpha"}, "28": {"stimulus": 56, "trial": 28, "rt": 2198, "response": "Alpha"}, "29": {"stimulus": 73, "trial": 29, "rt": 2688, "response": "Alpha"}, "40": {"stimulus": 17, "trial": 40, "rt": 1821, "response": "Beta"}, "41": {"stimulus": 68, "trial": 41, "rt": 2490, "response": "Alpha"}, "1": {"stimulus": 60, "trial": 1, "rt": 437, "response": "Alpha"}, "0": {"stimulus": 20, "trial": 0, "rt": 2070, "response": "Alpha"}, "3": {"stimulus": 6, "trial": 3, "rt": 4033, "response": "Alpha"}, "2": {"stimulus": 51, "trial": 2, "rt": 33999, "response": "Alpha"}, "5": {"stimulus": 63, "trial": 5, "rt": 2378, "response": "Alpha"}, "4": {"stimulus": 7, "trial": 4, "rt": 3374, "response": "Alpha"}, "7": {"stimulus": 38, "trial": 7, "rt": 2608, "response": "Alpha"}, "6": {"stimulus": 1, "trial": 6, "rt": 29599, "response": "Alpha"}, "9": {"stimulus": 36, "trial": 9, "rt": 1769, "response": "Alpha"}, "8": {"stimulus": 16, "trial": 8, "rt": 2860, "response": "Alpha"}, "78": {"stimulus": 42, "trial": 78, "rt": 2861, "response": "Beta"}, "51": {"stimulus": 37, "trial": 51, "rt": 2150, "response": "Alpha"}, "39": {"stimulus": 40, "trial": 39, "rt": 3117, "response": "Alpha"}, "65": {"stimulus": 59, "trial": 65, "rt": 1722, "response": "Beta"}, "76": {"stimulus": 28, "trial": 76, "rt": 1920, "response": "Alpha"}, "75": {"stimulus": 64, "trial": 75, "rt": 1979, "response": "Alpha"}, "38": {"stimulus": 29, "trial": 38, "rt": 1511, "response": "Alpha"}, "73": {"stimulus": 48, "trial": 73, "rt": 2292, "response": "Alpha"}, "72": {"stimulus": 11, "trial": 72, "rt": 1241, "response": "Alpha"}, "71": {"stimulus": 57, "trial": 71, "rt": 1170, "response": "Alpha"}, "70": {"stimulus": 47, "trial": 70, "rt": 2117, "response": "Alpha"}, "59": {"stimulus": 76, "trial": 59, "rt": 2672, "response": "Alpha"}, "79": {"stimulus": 33, "trial": 79, "rt": 1728, "response": "Beta"}, "58": {"stimulus": 74, "trial": 58, "rt": 1339, "response": "Alpha"}, "11": {"stimulus": 2, "trial": 11, "rt": 2371, "response": "Alpha"}, "10": {"stimulus": 12, "trial": 10, "rt": 2714, "response": "Alpha"}, "13": {"stimulus": 45, "trial": 13, "rt": 1352, "response": "Alpha"}, "12": {"stimulus": 65, "trial": 12, "rt": 2479, "response": "Beta"}, "15": {"stimulus": 79, "trial": 15, "rt": 1223, "response": "Alpha"}, "14": {"stimulus": 23, "trial": 14, "rt": 2818, "response": "Alpha"}, "17": {"stimulus": 49, "trial": 17, "rt": 2061, "response": "Alpha"}, "16": {"stimulus": 25, "trial": 16, "rt": 2449, "response": "Beta"}, "19": {"stimulus": 13, "trial": 19, "rt": 1389, "response": "Alpha"}, "18": {"stimulus": 66, "trial": 18, "rt": 1677, "response": "Alpha"}, "31": {"stimulus": 0, "trial": 31, "rt": 4621, "response": "Alpha"}, "30": {"stimulus": 15, "trial": 30, "rt": 1968, "response": "Alpha"}, "37": {"stimulus": 62, "trial": 37, "rt": 2740, "response": "Beta"}, "36": {"stimulus": 27, "trial": 36, "rt": 1531, "response": "Alpha"}, "35": {"stimulus": 69, "trial": 35, "rt": 1630, "response": "Alpha"}, "34": {"stimulus": 52, "trial": 34, "rt": 1761, "response": "Beta"}, "33": {"stimulus": 41, "trial": 33, "rt": 4101, "response": "Alpha"}, "55": {"stimulus": 26, "trial": 55, "rt": 2198, "response": "Beta"}, "74": {"stimulus": 32, "trial": 74, "rt": 1810, "response": "Beta"}, "32": {"stimulus": 34, "trial": 32, "rt": 2760, "response": "Alpha"}, "57": {"stimulus": 50, "trial": 57, "rt": 2582, "response": "Alpha"}, "50": {"stimulus": 4, "trial": 50, "rt": 1785, "response": "Alpha"}}, "experiment": {"Paradigm": "TACL", "Stimuli": "Size-Color Squares and Size-Orientation Circles", "Experiment": "Generating-Multiple-Categories"}, "submit": {"timeTotal": 855150, "age": "39", "comments": "good", "sex": "female"}}