{"info": {"participant": 125, "exposed": true, "lab": false, "start": 1554544713754, "counterbalance": 2, "stimtype": "Circles", "gentype": 1, "condition": "Corner_C", "browser": {"platform": "Win32", "userAgent": "Mozilla/5.0 (Windows NT 6.3; Win64; x64) AppleWebKit/537.36 (KHTML, like Gecko) Chrome/73.0.3683.86 Safari/537.36"}}, "observation": {"11": {"stimulus": 0, "trial": 11, "rt": 2234}, "10": {"stimulus": 80, "trial": 10, "rt": 2067}, "1": {"stimulus": 72, "trial": 1, "rt": 2332}, "0": {"stimulus": 80, "trial": 0, "rt": 3045}, "3": {"stimulus": 0, "trial": 3, "rt": 2323}, "2": {"stimulus": 8, "trial": 2, "rt": 1993}, "5": {"stimulus": 80, "trial": 5, "rt": 8435}, "4": {"stimulus": 72, "trial": 4, "rt": 2066}, "7": {"stimulus": 8, "trial": 7, "rt": 2649}, "6": {"stimulus": 0, "trial": 6, "rt": 2081}, "9": {"stimulus": 8, "trial": 9, "rt": 1841}, "8": {"stimulus": 72, "trial": 8, "rt": 2338}}, "generation": {"1": {"category": "Beta", "trial": 1, "stimulus": 65, "rt": 4795}, "0": {"category": "Beta", "trial": 0, "stimulus": 55, "rt": 4435}, "3": {"category": "Beta", "trial": 3, "stimulus": 29, "rt": 3795}, "2": {"category": "Beta", "trial": 2, "stimulus": 40, "rt": 5708}}, "generalization": {"56": {"stimulus": 27, "trial": 56, "rt": 933, "response": "Alpha"}, "77": {"stimulus": 59, "trial": 77, "rt": 903, "response": "Alpha"}, "54": {"stimulus": 4, "trial": 54, "rt": 759, "response": "Alpha"}, "42": {"stimulus": 67, "trial": 42, "rt": 811, "response": "Alpha"}, "48": {"stimulus": 14, "trial": 48, "rt": 761, "response": "Beta"}, "43": {"stimulus": 74, "trial": 43, "rt": 817, "response": "Alpha"}, "60": {"stimulus": 58, "trial": 60, "rt": 888, "response": "Alpha"}, "61": {"stimulus": 52, "trial": 61, "rt": 604, "response": "Alpha"}, "62": {"stimulus": 2, "trial": 62, "rt": 638, "response": "Alpha"}, "63": {"stimulus": 25, "trial": 63, "rt": 1025, "response": "Alpha"}, "64": {"stimulus": 45, "trial": 64, "rt": 1011, "response": "Alpha"}, "49": {"stimulus": 28, "trial": 49, "rt": 713, "response": "Alpha"}, "66": {"stimulus": 33, "trial": 66, "rt": 980, "response": "Alpha"}, "67": {"stimulus": 40, "trial": 67, "rt": 1022, "response": "Beta"}, "68": {"stimulus": 69, "trial": 68, "rt": 593, "response": "Alpha"}, "69": {"stimulus": 9, "trial": 69, "rt": 1170, "response": "Alpha"}, "80": {"stimulus": 35, "trial": 80, "rt": 1830, "response": "Alpha"}, "52": {"stimulus": 23, "trial": 52, "rt": 756, "response": "Alpha"}, "53": {"stimulus": 51, "trial": 53, "rt": 816, "response": "Beta"}, "24": {"stimulus": 24, "trial": 24, "rt": 911, "response": "Beta"}, "25": {"stimulus": 17, "trial": 25, "rt": 901, "response": "Alpha"}, "26": {"stimulus": 72, "trial": 26, "rt": 886, "response": "Beta"}, "27": {"stimulus": 78, "trial": 27, "rt": 1035, "response": "Alpha"}, "20": {"stimulus": 76, "trial": 20, "rt": 591, "response": "Alpha"}, "21": {"stimulus": 5, "trial": 21, "rt": 962, "response": "Alpha"}, "22": {"stimulus": 19, "trial": 22, "rt": 911, "response": "Beta"}, "23": {"stimulus": 79, "trial": 23, "rt": 958, "response": "Alpha"}, "46": {"stimulus": 32, "trial": 46, "rt": 811, "response": "Alpha"}, "47": {"stimulus": 48, "trial": 47, "rt": 930, "response": "Alpha"}, "44": {"stimulus": 57, "trial": 44, "rt": 931, "response": "Alpha"}, "45": {"stimulus": 75, "trial": 45, "rt": 680, "response": "Beta"}, "28": {"stimulus": 41, "trial": 28, "rt": 835, "response": "Alpha"}, "29": {"stimulus": 60, "trial": 29, "rt": 1038, "response": "Alpha"}, "40": {"stimulus": 10, "trial": 40, "rt": 781, "response": "Beta"}, "41": {"stimulus": 15, "trial": 41, "rt": 887, "response": "Alpha"}, "1": {"stimulus": 16, "trial": 1, "rt": 1275, "response": "Alpha"}, "0": {"stimulus": 44, "trial": 0, "rt": 2034, "response": "Beta"}, "3": {"stimulus": 34, "trial": 3, "rt": 721, "response": "Beta"}, "2": {"stimulus": 37, "trial": 2, "rt": 1090, "response": "Alpha"}, "5": {"stimulus": 3, "trial": 5, "rt": 842, "response": "Beta"}, "4": {"stimulus": 21, "trial": 4, "rt": 803, "response": "Alpha"}, "7": {"stimulus": 53, "trial": 7, "rt": 810, "response": "Alpha"}, "6": {"stimulus": 71, "trial": 6, "rt": 784, "response": "Alpha"}, "9": {"stimulus": 65, "trial": 9, "rt": 692, "response": "Alpha"}, "8": {"stimulus": 26, "trial": 8, "rt": 788, "response": "Alpha"}, "78": {"stimulus": 68, "trial": 78, "rt": 823, "response": "Alpha"}, "51": {"stimulus": 0, "trial": 51, "rt": 713, "response": "Beta"}, "39": {"stimulus": 70, "trial": 39, "rt": 906, "response": "Alpha"}, "65": {"stimulus": 7, "trial": 65, "rt": 1046, "response": "Alpha"}, "76": {"stimulus": 42, "trial": 76, "rt": 668, "response": "Alpha"}, "75": {"stimulus": 80, "trial": 75, "rt": 856, "response": "Alpha"}, "38": {"stimulus": 47, "trial": 38, "rt": 895, "response": "Alpha"}, "73": {"stimulus": 12, "trial": 73, "rt": 5875, "response": "Alpha"}, "72": {"stimulus": 29, "trial": 72, "rt": 36818, "response": "Alpha"}, "71": {"stimulus": 73, "trial": 71, "rt": 1002, "response": "Alpha"}, "70": {"stimulus": 77, "trial": 70, "rt": 804, "response": "Alpha"}, "59": {"stimulus": 30, "trial": 59, "rt": 863, "response": "Alpha"}, "79": {"stimulus": 64, "trial": 79, "rt": 921, "response": "Alpha"}, "58": {"stimulus": 46, "trial": 58, "rt": 847, "response": "Alpha"}, "11": {"stimulus": 61, "trial": 11, "rt": 880, "response": "Alpha"}, "10": {"stimulus": 54, "trial": 10, "rt": 804, "response": "Alpha"}, "13": {"stimulus": 55, "trial": 13, "rt": 945, "response": "Alpha"}, "12": {"stimulus": 8, "trial": 12, "rt": 903, "response": "Beta"}, "15": {"stimulus": 66, "trial": 15, "rt": 853, "response": "Alpha"}, "14": {"stimulus": 43, "trial": 14, "rt": 3001, "response": "Alpha"}, "17": {"stimulus": 31, "trial": 17, "rt": 994, "response": "Alpha"}, "16": {"stimulus": 50, "trial": 16, "rt": 1002, "response": "Alpha"}, "19": {"stimulus": 49, "trial": 19, "rt": 732, "response": "Beta"}, "18": {"stimulus": 13, "trial": 18, "rt": 1093, "response": "Alpha"}, "31": {"stimulus": 20, "trial": 31, "rt": 793, "response": "Alpha"}, "30": {"stimulus": 11, "trial": 30, "rt": 813, "response": "Alpha"}, "37": {"stimulus": 1, "trial": 37, "rt": 981, "response": "Alpha"}, "36": {"stimulus": 36, "trial": 36, "rt": 1336, "response": "Alpha"}, "35": {"stimulus": 6, "trial": 35, "rt": 1045, "response": "Beta"}, "34": {"stimulus": 62, "trial": 34, "rt": 796, "response": "Alpha"}, "33": {"stimulus": 0, "trial": 33, "rt": 949, "response": "Alpha"}, "55": {"stimulus": 18, "trial": 55, "rt": 808, "response": "Alpha"}, "74": {"stimulus": 22, "trial": 74, "rt": 50332, "response": "Alpha"}, "32": {"stimulus": 63, "trial": 32, "rt": 762, "response": "Alpha"}, "57": {"stimulus": 56, "trial": 57, "rt": 729, "response": "Beta"}, "50": {"stimulus": 38, "trial": 50, "rt": 926, "response": "Alpha"}}, "experiment": {"Paradigm": "TACL", "Stimuli": "Size-Color Squares and Size-Orientation Circles", "Experiment": "Generating-Multiple-Categories"}, "submit": {}}tegories"}, "submit": {}}