{"info": {"finish": 1554546932322, "participant": 126, "exposed": true, "lab": false, "start": 1554546580658, "counterbalance": 6, "stimtype": "Squares", "gentype": 1, "condition": "Corner_S", "browser": {"platform": "Win32", "userAgent": "Mozilla/5.0 (Windows NT 6.2; Win64; x64) AppleWebKit/537.36 (KHTML, like Gecko) Chrome/73.0.3683.86 Safari/537.36"}}, "observation": {"11": {"stimulus": 80, "trial": 11, "rt": 2028}, "10": {"stimulus": 8, "trial": 10, "rt": 1728}, "1": {"stimulus": 72, "trial": 1, "rt": 6434}, "0": {"stimulus": 0, "trial": 0, "rt": 4212}, "3": {"stimulus": 80, "trial": 3, "rt": 2284}, "2": {"stimulus": 8, "trial": 2, "rt": 17772}, "5": {"stimulus": 80, "trial": 5, "rt": 2031}, "4": {"stimulus": 8, "trial": 4, "rt": 2343}, "7": {"stimulus": 72, "trial": 7, "rt": 3069}, "6": {"stimulus": 0, "trial": 6, "rt": 1978}, "9": {"stimulus": 72, "trial": 9, "rt": 1807}, "8": {"stimulus": 0, "trial": 8, "rt": 2129}}, "generation": {"1": {"category": "Beta", "trial": 1, "stimulus": 13, "rt": 26426}, "0": {"category": "Beta", "trial": 0, "stimulus": 8, "rt": 14227}, "3": {"category": "Beta", "trial": 3, "stimulus": 39, "rt": 10237}, "2": {"category": "Beta", "trial": 2, "stimulus": 20, "rt": 15171}}, "generalization": {"56": {"stimulus": 8, "trial": 56, "rt": 1262, "response": "Alpha"}, "77": {"stimulus": 9, "trial": 77, "rt": 1308, "response": "Beta"}, "54": {"stimulus": 7, "trial": 54, "rt": 1190, "response": "Alpha"}, "42": {"stimulus": 20, "trial": 42, "rt": 1862, "response": "Beta"}, "48": {"stimulus": 13, "trial": 48, "rt": 1060, "response": "Beta"}, "43": {"stimulus": 36, "trial": 43, "rt": 775, "response": "Beta"}, "60": {"stimulus": 41, "trial": 60, "rt": 1263, "response": "Alpha"}, "61": {"stimulus": 26, "trial": 61, "rt": 1367, "response": "Beta"}, "62": {"stimulus": 43, "trial": 62, "rt": 1377, "response": "Alpha"}, "63": {"stimulus": 48, "trial": 63, "rt": 2223, "response": "Beta"}, "64": {"stimulus": 52, "trial": 64, "rt": 1230, "response": "Alpha"}, "49": {"stimulus": 74, "trial": 49, "rt": 1817, "response": "Beta"}, "66": {"stimulus": 18, "trial": 66, "rt": 2175, "response": "Beta"}, "67": {"stimulus": 70, "trial": 67, "rt": 1361, "response": "Alpha"}, "68": {"stimulus": 65, "trial": 68, "rt": 918, "response": "Beta"}, "69": {"stimulus": 77, "trial": 69, "rt": 854, "response": "Alpha"}, "80": {"stimulus": 45, "trial": 80, "rt": 878, "response": "Alpha"}, "52": {"stimulus": 72, "trial": 52, "rt": 1242, "response": "Alpha"}, "53": {"stimulus": 35, "trial": 53, "rt": 937, "response": "Beta"}, "24": {"stimulus": 46, "trial": 24, "rt": 847, "response": "Alpha"}, "25": {"stimulus": 14, "trial": 25, "rt": 4744, "response": "Beta"}, "26": {"stimulus": 4, "trial": 26, "rt": 1161, "response": "Beta"}, "27": {"stimulus": 78, "trial": 27, "rt": 1089, "response": "Beta"}, "20": {"stimulus": 0, "trial": 20, "rt": 1109, "response": "Alpha"}, "21": {"stimulus": 60, "trial": 21, "rt": 977, "response": "Alpha"}, "22": {"stimulus": 24, "trial": 22, "rt": 845, "response": "Alpha"}, "23": {"stimulus": 63, "trial": 23, "rt": 2170, "response": "Alpha"}, "46": {"stimulus": 27, "trial": 46, "rt": 1132, "response": "Alpha"}, "47": {"stimulus": 37, "trial": 47, "rt": 1464, "response": "Alpha"}, "44": {"stimulus": 69, "trial": 44, "rt": 798, "response": "Alpha"}, "45": {"stimulus": 15, "trial": 45, "rt": 834, "response": "Alpha"}, "28": {"stimulus": 33, "trial": 28, "rt": 763, "response": "Beta"}, "29": {"stimulus": 19, "trial": 29, "rt": 582, "response": "Beta"}, "40": {"stimulus": 51, "trial": 40, "rt": 1280, "response": "Alpha"}, "41": {"stimulus": 55, "trial": 41, "rt": 1227, "response": "Beta"}, "1": {"stimulus": 75, "trial": 1, "rt": 1150, "response": "Alpha"}, "0": {"stimulus": 10, "trial": 0, "rt": 2665, "response": "Alpha"}, "3": {"stimulus": 16, "trial": 3, "rt": 884, "response": "Alpha"}, "2": {"stimulus": 11, "trial": 2, "rt": 1045, "response": "Alpha"}, "5": {"stimulus": 17, "trial": 5, "rt": 657, "response": "Alpha"}, "4": {"stimulus": 25, "trial": 4, "rt": 618, "response": "Alpha"}, "7": {"stimulus": 28, "trial": 7, "rt": 962, "response": "Alpha"}, "6": {"stimulus": 21, "trial": 6, "rt": 810, "response": "Alpha"}, "9": {"stimulus": 59, "trial": 9, "rt": 990, "response": "Alpha"}, "8": {"stimulus": 30, "trial": 8, "rt": 1109, "response": "Beta"}, "78": {"stimulus": 32, "trial": 78, "rt": 1037, "response": "Alpha"}, "51": {"stimulus": 5, "trial": 51, "rt": 1018, "response": "Beta"}, "39": {"stimulus": 40, "trial": 39, "rt": 1246, "response": "Beta"}, "65": {"stimulus": 12, "trial": 65, "rt": 1106, "response": "Beta"}, "76": {"stimulus": 61, "trial": 76, "rt": 1112, "response": "Alpha"}, "75": {"stimulus": 44, "trial": 75, "rt": 1191, "response": "Alpha"}, "38": {"stimulus": 22, "trial": 38, "rt": 1974, "response": "Beta"}, "73": {"stimulus": 56, "trial": 73, "rt": 1167, "response": "Alpha"}, "72": {"stimulus": 42, "trial": 72, "rt": 1318, "response": "Beta"}, "71": {"stimulus": 2, "trial": 71, "rt": 5103, "response": "Alpha"}, "70": {"stimulus": 34, "trial": 70, "rt": 703, "response": "Beta"}, "59": {"stimulus": 79, "trial": 59, "rt": 1545, "response": "Beta"}, "79": {"stimulus": 71, "trial": 79, "rt": 1723, "response": "Beta"}, "58": {"stimulus": 6, "trial": 58, "rt": 1240, "response": "Alpha"}, "11": {"stimulus": 76, "trial": 11, "rt": 1911, "response": "Beta"}, "10": {"stimulus": 3, "trial": 10, "rt": 686, "response": "Beta"}, "13": {"stimulus": 58, "trial": 13, "rt": 2224, "response": "Beta"}, "12": {"stimulus": 53, "trial": 12, "rt": 3542, "response": "Alpha"}, "15": {"stimulus": 23, "trial": 15, "rt": 1774, "response": "Beta"}, "14": {"stimulus": 50, "trial": 14, "rt": 1529, "response": "Alpha"}, "17": {"stimulus": 54, "trial": 17, "rt": 830, "response": "Beta"}, "16": {"stimulus": 62, "trial": 16, "rt": 514, "response": "Alpha"}, "19": {"stimulus": 47, "trial": 19, "rt": 1583, "response": "Alpha"}, "18": {"stimulus": 73, "trial": 18, "rt": 718, "response": "Alpha"}, "31": {"stimulus": 31, "trial": 31, "rt": 755, "response": "Beta"}, "30": {"stimulus": 49, "trial": 30, "rt": 1266, "response": "Beta"}, "37": {"stimulus": 68, "trial": 37, "rt": 1000, "response": "Alpha"}, "36": {"stimulus": 0, "trial": 36, "rt": 1607, "response": "Beta"}, "35": {"stimulus": 38, "trial": 35, "rt": 2010, "response": "Beta"}, "34": {"stimulus": 80, "trial": 34, "rt": 1276, "response": "Alpha"}, "33": {"stimulus": 1, "trial": 33, "rt": 974, "response": "Beta"}, "55": {"stimulus": 57, "trial": 55, "rt": 2773, "response": "Beta"}, "74": {"stimulus": 66, "trial": 74, "rt": 686, "response": "Beta"}, "32": {"stimulus": 64, "trial": 32, "rt": 999, "response": "Alpha"}, "57": {"stimulus": 29, "trial": 57, "rt": 1366, "response": "Beta"}, "50": {"stimulus": 67, "trial": 50, "rt": 1315, "response": "Alpha"}}, "experiment": {"Paradigm": "TACL", "Stimuli": "Size-Color Squares and Size-Orientation Circles", "Experiment": "Generating-Multiple-Categories"}, "submit": {"timeTotal": 353555, "age": "29", "comments": "nice study", "sex": "female"}}