{"info": {"finish": 1554548573443, "participant": 128, "exposed": true, "lab": false, "start": 1554548008970, "counterbalance": 1, "stimtype": "Circles", "gentype": 1, "condition": "Corner_C", "browser": {"platform": "Win32", "userAgent": "Mozilla/5.0 (Windows NT 6.3; Win64; x64) AppleWebKit/537.36 (KHTML, like Gecko) Chrome/73.0.3683.103 Safari/537.36"}}, "observation": {"11": {"stimulus": 72, "trial": 11, "rt": 7603}, "10": {"stimulus": 8, "trial": 10, "rt": 2470}, "1": {"stimulus": 72, "trial": 1, "rt": 7523}, "0": {"stimulus": 8, "trial": 0, "rt": 39192}, "3": {"stimulus": 0, "trial": 3, "rt": 8173}, "2": {"stimulus": 80, "trial": 2, "rt": 7496}, "5": {"stimulus": 0, "trial": 5, "rt": 7882}, "4": {"stimulus": 8, "trial": 4, "rt": 10557}, "7": {"stimulus": 72, "trial": 7, "rt": 2593}, "6": {"stimulus": 80, "trial": 6, "rt": 2667}, "9": {"stimulus": 80, "trial": 9, "rt": 2282}, "8": {"stimulus": 0, "trial": 8, "rt": 2480}}, "generation": {"1": {"category": "Beta", "trial": 1, "stimulus": 32, "rt": 24472}, "0": {"category": "Beta", "trial": 0, "stimulus": 41, "rt": 18895}, "3": {"category": "Beta", "trial": 3, "stimulus": 14, "rt": 16685}, "2": {"category": "Beta", "trial": 2, "stimulus": 31, "rt": 60624}}, "generalization": {"56": {"stimulus": 0, "trial": 56, "rt": 1422, "response": "Alpha"}, "77": {"stimulus": 9, "trial": 77, "rt": 1328, "response": "Beta"}, "54": {"stimulus": 34, "trial": 54, "rt": 1263, "response": "Beta"}, "42": {"stimulus": 28, "trial": 42, "rt": 1911, "response": "Beta"}, "48": {"stimulus": 32, "trial": 48, "rt": 1847, "response": "Beta"}, "43": {"stimulus": 5, "trial": 43, "rt": 1784, "response": "Alpha"}, "60": {"stimulus": 50, "trial": 60, "rt": 1611, "response": "Alpha"}, "61": {"stimulus": 49, "trial": 61, "rt": 3430, "response": "Alpha"}, "62": {"stimulus": 46, "trial": 62, "rt": 1638, "response": "Alpha"}, "63": {"stimulus": 69, "trial": 63, "rt": 1781, "response": "Alpha"}, "64": {"stimulus": 8, "trial": 64, "rt": 1302, "response": "Alpha"}, "49": {"stimulus": 3, "trial": 49, "rt": 1413, "response": "Alpha"}, "66": {"stimulus": 64, "trial": 66, "rt": 1950, "response": "Alpha"}, "67": {"stimulus": 78, "trial": 67, "rt": 1162, "response": "Alpha"}, "68": {"stimulus": 54, "trial": 68, "rt": 1219, "response": "Alpha"}, "69": {"stimulus": 79, "trial": 69, "rt": 1955, "response": "Alpha"}, "80": {"stimulus": 67, "trial": 80, "rt": 1392, "response": "Alpha"}, "52": {"stimulus": 11, "trial": 52, "rt": 1177, "response": "Beta"}, "53": {"stimulus": 75, "trial": 53, "rt": 1451, "response": "Alpha"}, "24": {"stimulus": 13, "trial": 24, "rt": 1388, "response": "Beta"}, "25": {"stimulus": 60, "trial": 25, "rt": 1540, "response": "Alpha"}, "26": {"stimulus": 77, "trial": 26, "rt": 1556, "response": "Alpha"}, "27": {"stimulus": 68, "trial": 27, "rt": 1502, "response": "Alpha"}, "20": {"stimulus": 73, "trial": 20, "rt": 2421, "response": "Alpha"}, "21": {"stimulus": 56, "trial": 21, "rt": 1553, "response": "Alpha"}, "22": {"stimulus": 17, "trial": 22, "rt": 1389, "response": "Beta"}, "23": {"stimulus": 4, "trial": 23, "rt": 1248, "response": "Alpha"}, "46": {"stimulus": 70, "trial": 46, "rt": 2404, "response": "Alpha"}, "47": {"stimulus": 62, "trial": 47, "rt": 1761, "response": "Alpha"}, "44": {"stimulus": 6, "trial": 44, "rt": 1469, "response": "Alpha"}, "45": {"stimulus": 29, "trial": 45, "rt": 2319, "response": "Beta"}, "28": {"stimulus": 14, "trial": 28, "rt": 1355, "response": "Beta"}, "29": {"stimulus": 23, "trial": 29, "rt": 1709, "response": "Beta"}, "40": {"stimulus": 7, "trial": 40, "rt": 16579, "response": "Alpha"}, "41": {"stimulus": 38, "trial": 41, "rt": 2146, "response": "Beta"}, "1": {"stimulus": 2, "trial": 1, "rt": 5896, "response": "Alpha"}, "0": {"stimulus": 36, "trial": 0, "rt": 5227, "response": "Beta"}, "3": {"stimulus": 72, "trial": 3, "rt": 1383, "response": "Alpha"}, "2": {"stimulus": 25, "trial": 2, "rt": 2511, "response": "Beta"}, "5": {"stimulus": 31, "trial": 5, "rt": 1641, "response": "Beta"}, "4": {"stimulus": 12, "trial": 4, "rt": 1378, "response": "Beta"}, "7": {"stimulus": 18, "trial": 7, "rt": 1324, "response": "Beta"}, "6": {"stimulus": 1, "trial": 6, "rt": 1837, "response": "Alpha"}, "9": {"stimulus": 45, "trial": 9, "rt": 8950, "response": "Alpha"}, "8": {"stimulus": 33, "trial": 8, "rt": 1805, "response": "Beta"}, "78": {"stimulus": 16, "trial": 78, "rt": 1731, "response": "Beta"}, "51": {"stimulus": 57, "trial": 51, "rt": 1349, "response": "Alpha"}, "39": {"stimulus": 26, "trial": 39, "rt": 1855, "response": "Beta"}, "65": {"stimulus": 37, "trial": 65, "rt": 2028, "response": "Beta"}, "76": {"stimulus": 55, "trial": 76, "rt": 2093, "response": "Alpha"}, "75": {"stimulus": 76, "trial": 75, "rt": 1332, "response": "Alpha"}, "38": {"stimulus": 43, "trial": 38, "rt": 1314, "response": "Beta"}, "73": {"stimulus": 80, "trial": 73, "rt": 1558, "response": "Alpha"}, "72": {"stimulus": 48, "trial": 72, "rt": 1596, "response": "Alpha"}, "71": {"stimulus": 30, "trial": 71, "rt": 1205, "response": "Beta"}, "70": {"stimulus": 40, "trial": 70, "rt": 1931, "response": "Beta"}, "59": {"stimulus": 66, "trial": 59, "rt": 1412, "response": "Alpha"}, "79": {"stimulus": 10, "trial": 79, "rt": 1733, "response": "Beta"}, "58": {"stimulus": 47, "trial": 58, "rt": 6441, "response": "Alpha"}, "11": {"stimulus": 74, "trial": 11, "rt": 1424, "response": "Alpha"}, "10": {"stimulus": 59, "trial": 10, "rt": 4104, "response": "Alpha"}, "13": {"stimulus": 24, "trial": 13, "rt": 2252, "response": "Beta"}, "12": {"stimulus": 0, "trial": 12, "rt": 1296, "response": "Alpha"}, "15": {"stimulus": 19, "trial": 15, "rt": 1499, "response": "Beta"}, "14": {"stimulus": 63, "trial": 14, "rt": 1894, "response": "Alpha"}, "17": {"stimulus": 22, "trial": 17, "rt": 1558, "response": "Beta"}, "16": {"stimulus": 41, "trial": 16, "rt": 10329, "response": "Beta"}, "19": {"stimulus": 65, "trial": 19, "rt": 1361, "response": "Alpha"}, "18": {"stimulus": 42, "trial": 18, "rt": 1466, "response": "Beta"}, "31": {"stimulus": 61, "trial": 31, "rt": 1377, "response": "Alpha"}, "30": {"stimulus": 15, "trial": 30, "rt": 1422, "response": "Beta"}, "37": {"stimulus": 71, "trial": 37, "rt": 1252, "response": "Alpha"}, "36": {"stimulus": 58, "trial": 36, "rt": 1485, "response": "Alpha"}, "35": {"stimulus": 53, "trial": 35, "rt": 1607, "response": "Alpha"}, "34": {"stimulus": 51, "trial": 34, "rt": 2478, "response": "Alpha"}, "33": {"stimulus": 21, "trial": 33, "rt": 1568, "response": "Beta"}, "55": {"stimulus": 20, "trial": 55, "rt": 5399, "response": "Beta"}, "74": {"stimulus": 35, "trial": 74, "rt": 1703, "response": "Beta"}, "32": {"stimulus": 44, "trial": 32, "rt": 1363, "response": "Beta"}, "57": {"stimulus": 52, "trial": 57, "rt": 1677, "response": "Alpha"}, "50": {"stimulus": 27, "trial": 50, "rt": 2559, "response": "Beta"}}, "experiment": {"Paradigm": "TACL", "Stimuli": "Size-Color Squares and Size-Orientation Circles", "Experiment": "Generating-Multiple-Categories"}, "submit": {"timeTotal": 564623, "age": "28", "comments": "nice study", "sex": "male"}}