{"info": {"finish": 1554549515447, "participant": 129, "exposed": true, "lab": false, "start": 1554548645805, "counterbalance": 6, "stimtype": "Squares", "gentype": 1, "condition": "Corner_S", "browser": {"platform": "Win32", "userAgent": "Mozilla/5.0 (Windows NT 6.1) AppleWebKit/537.36 (KHTML, like Gecko) Chrome/73.0.3683.86 Safari/537.36"}}, "observation": {"11": {"stimulus": 0, "trial": 11, "rt": 2383}, "10": {"stimulus": 72, "trial": 10, "rt": 1590}, "1": {"stimulus": 8, "trial": 1, "rt": 2478}, "0": {"stimulus": 0, "trial": 0, "rt": 55728}, "3": {"stimulus": 72, "trial": 3, "rt": 1927}, "2": {"stimulus": 80, "trial": 2, "rt": 1750}, "5": {"stimulus": 80, "trial": 5, "rt": 1726}, "4": {"stimulus": 0, "trial": 4, "rt": 2183}, "7": {"stimulus": 72, "trial": 7, "rt": 19302}, "6": {"stimulus": 8, "trial": 6, "rt": 1447}, "9": {"stimulus": 8, "trial": 9, "rt": 4767}, "8": {"stimulus": 80, "trial": 8, "rt": 2919}}, "generation": {"1": {"category": "Beta", "trial": 1, "stimulus": 42, "rt": 9068}, "0": {"category": "Beta", "trial": 0, "stimulus": 33, "rt": 9821}, "3": {"category": "Beta", "trial": 3, "stimulus": 24, "rt": 42503}, "2": {"category": "Beta", "trial": 2, "stimulus": 55, "rt": 19884}}, "generalization": {"56": {"stimulus": 54, "trial": 56, "rt": 414, "response": "Alpha"}, "77": {"stimulus": 29, "trial": 77, "rt": 92040, "response": "Alpha"}, "54": {"stimulus": 59, "trial": 54, "rt": 710, "response": "Alpha"}, "42": {"stimulus": 20, "trial": 42, "rt": 1222, "response": "Beta"}, "48": {"stimulus": 35, "trial": 48, "rt": 966, "response": "Alpha"}, "43": {"stimulus": 8, "trial": 43, "rt": 816, "response": "Alpha"}, "60": {"stimulus": 77, "trial": 60, "rt": 1190, "response": "Alpha"}, "61": {"stimulus": 25, "trial": 61, "rt": 758, "response": "Alpha"}, "62": {"stimulus": 6, "trial": 62, "rt": 13521, "response": "Alpha"}, "63": {"stimulus": 73, "trial": 63, "rt": 39573, "response": "Beta"}, "64": {"stimulus": 58, "trial": 64, "rt": 640, "response": "Alpha"}, "49": {"stimulus": 18, "trial": 49, "rt": 919, "response": "Alpha"}, "66": {"stimulus": 11, "trial": 66, "rt": 31838, "response": "Beta"}, "67": {"stimulus": 42, "trial": 67, "rt": 1327, "response": "Alpha"}, "68": {"stimulus": 50, "trial": 68, "rt": 7079, "response": "Alpha"}, "69": {"stimulus": 53, "trial": 69, "rt": 605, "response": "Alpha"}, "80": {"stimulus": 31, "trial": 80, "rt": 511, "response": "Alpha"}, "52": {"stimulus": 48, "trial": 52, "rt": 1439, "response": "Beta"}, "53": {"stimulus": 62, "trial": 53, "rt": 4221, "response": "Alpha"}, "24": {"stimulus": 28, "trial": 24, "rt": 22280, "response": "Alpha"}, "25": {"stimulus": 36, "trial": 25, "rt": 1383, "response": "Alpha"}, "26": {"stimulus": 32, "trial": 26, "rt": 23646, "response": "Alpha"}, "27": {"stimulus": 16, "trial": 27, "rt": 16087, "response": "Alpha"}, "20": {"stimulus": 60, "trial": 20, "rt": 759, "response": "Alpha"}, "21": {"stimulus": 72, "trial": 21, "rt": 1175, "response": "Alpha"}, "22": {"stimulus": 22, "trial": 22, "rt": 6582, "response": "Alpha"}, "23": {"stimulus": 76, "trial": 23, "rt": 1039, "response": "Alpha"}, "46": {"stimulus": 56, "trial": 46, "rt": 1191, "response": "Beta"}, "47": {"stimulus": 23, "trial": 47, "rt": 638, "response": "Alpha"}, "44": {"stimulus": 9, "trial": 44, "rt": 750, "response": "Alpha"}, "45": {"stimulus": 4, "trial": 45, "rt": 1470, "response": "Beta"}, "28": {"stimulus": 41, "trial": 28, "rt": 8334, "response": "Alpha"}, "29": {"stimulus": 10, "trial": 29, "rt": 6672, "response": "Alpha"}, "40": {"stimulus": 78, "trial": 40, "rt": 4670, "response": "Beta"}, "41": {"stimulus": 75, "trial": 41, "rt": 998, "response": "Beta"}, "1": {"stimulus": 3, "trial": 1, "rt": 1070, "response": "Alpha"}, "0": {"stimulus": 71, "trial": 0, "rt": 1948, "response": "Alpha"}, "3": {"stimulus": 80, "trial": 3, "rt": 863, "response": "Alpha"}, "2": {"stimulus": 34, "trial": 2, "rt": 807, "response": "Alpha"}, "5": {"stimulus": 24, "trial": 5, "rt": 774, "response": "Alpha"}, "4": {"stimulus": 68, "trial": 4, "rt": 44232, "response": "Alpha"}, "7": {"stimulus": 5, "trial": 7, "rt": 631, "response": "Alpha"}, "6": {"stimulus": 26, "trial": 6, "rt": 6231, "response": "Alpha"}, "9": {"stimulus": 70, "trial": 9, "rt": 662, "response": "Alpha"}, "8": {"stimulus": 52, "trial": 8, "rt": 590, "response": "Alpha"}, "78": {"stimulus": 27, "trial": 78, "rt": 931, "response": "Alpha"}, "51": {"stimulus": 2, "trial": 51, "rt": 1703, "response": "Alpha"}, "39": {"stimulus": 47, "trial": 39, "rt": 1870, "response": "Beta"}, "65": {"stimulus": 51, "trial": 65, "rt": 51278, "response": "Alpha"}, "76": {"stimulus": 66, "trial": 76, "rt": 9350, "response": "Alpha"}, "75": {"stimulus": 14, "trial": 75, "rt": 3175, "response": "Beta"}, "38": {"stimulus": 43, "trial": 38, "rt": 1625, "response": "Alpha"}, "73": {"stimulus": 64, "trial": 73, "rt": 7774, "response": "Alpha"}, "72": {"stimulus": 46, "trial": 72, "rt": 381, "response": "Alpha"}, "71": {"stimulus": 7, "trial": 71, "rt": 551, "response": "Alpha"}, "70": {"stimulus": 33, "trial": 70, "rt": 934, "response": "Alpha"}, "59": {"stimulus": 13, "trial": 59, "rt": 456, "response": "Alpha"}, "79": {"stimulus": 30, "trial": 79, "rt": 848, "response": "Alpha"}, "58": {"stimulus": 49, "trial": 58, "rt": 390, "response": "Alpha"}, "11": {"stimulus": 44, "trial": 11, "rt": 23406, "response": "Alpha"}, "10": {"stimulus": 0, "trial": 10, "rt": 1422, "response": "Alpha"}, "13": {"stimulus": 37, "trial": 13, "rt": 1167, "response": "Beta"}, "12": {"stimulus": 15, "trial": 12, "rt": 7534, "response": "Alpha"}, "15": {"stimulus": 57, "trial": 15, "rt": 1110, "response": "Beta"}, "14": {"stimulus": 74, "trial": 14, "rt": 1086, "response": "Beta"}, "17": {"stimulus": 61, "trial": 17, "rt": 2272, "response": "Alpha"}, "16": {"stimulus": 12, "trial": 16, "rt": 1176, "response": "Beta"}, "19": {"stimulus": 21, "trial": 19, "rt": 943, "response": "Beta"}, "18": {"stimulus": 79, "trial": 18, "rt": 33774, "response": "Alpha"}, "31": {"stimulus": 65, "trial": 31, "rt": 2229, "response": "Beta"}, "30": {"stimulus": 17, "trial": 30, "rt": 1151, "response": "Alpha"}, "37": {"stimulus": 0, "trial": 37, "rt": 583, "response": "Alpha"}, "36": {"stimulus": 55, "trial": 36, "rt": 983, "response": "Alpha"}, "35": {"stimulus": 63, "trial": 35, "rt": 25209, "response": "Alpha"}, "34": {"stimulus": 38, "trial": 34, "rt": 11932, "response": "Beta"}, "33": {"stimulus": 40, "trial": 33, "rt": 1358, "response": "Alpha"}, "55": {"stimulus": 69, "trial": 55, "rt": 1759, "response": "Alpha"}, "74": {"stimulus": 19, "trial": 74, "rt": 3192, "response": "Alpha"}, "32": {"stimulus": 45, "trial": 32, "rt": 5108, "response": "Alpha"}, "57": {"stimulus": 1, "trial": 57, "rt": 919, "response": "Alpha"}, "50": {"stimulus": 67, "trial": 50, "rt": 3382, "response": "Alpha"}}, "experiment": {"Paradigm": "TACL", "Stimuli": "Size-Color Squares and Size-Orientation Circles", "Experiment": "Generating-Multiple-Categories"}, "submit": {"timeTotal": 870845, "age": "29", "comments": "Thank you.Nice survey.", "sex": "male"}}