{"info": {"finish": 1554550410605, "participant": 130, "exposed": true, "lab": false, "start": 1554549947437, "counterbalance": 4, "stimtype": "Circles", "gentype": 1, "condition": "Corner_C", "browser": {"platform": "Win32", "userAgent": "Mozilla/5.0 (Windows NT 10.0; Win64; x64) AppleWebKit/537.36 (KHTML, like Gecko) Chrome/73.0.3683.86 Safari/537.36"}}, "observation": {"11": {"stimulus": 72, "trial": 11, "rt": 2494}, "10": {"stimulus": 8, "trial": 10, "rt": 1789}, "1": {"stimulus": 8, "trial": 1, "rt": 2293}, "0": {"stimulus": 80, "trial": 0, "rt": 2819}, "3": {"stimulus": 0, "trial": 3, "rt": 2028}, "2": {"stimulus": 72, "trial": 2, "rt": 2237}, "5": {"stimulus": 8, "trial": 5, "rt": 5308}, "4": {"stimulus": 80, "trial": 4, "rt": 1980}, "7": {"stimulus": 72, "trial": 7, "rt": 2189}, "6": {"stimulus": 0, "trial": 6, "rt": 2173}, "9": {"stimulus": 80, "trial": 9, "rt": 1763}, "8": {"stimulus": 0, "trial": 8, "rt": 2861}}, "generation": {"1": {"category": "Beta", "trial": 1, "stimulus": 22, "rt": 14470}, "0": {"category": "Beta", "trial": 0, "stimulus": 58, "rt": 34198}, "3": {"category": "Beta", "trial": 3, "stimulus": 67, "rt": 15798}, "2": {"category": "Beta", "trial": 2, "stimulus": 40, "rt": 14895}}, "generalization": {"56": {"stimulus": 45, "trial": 56, "rt": 548, "response": "Alpha"}, "77": {"stimulus": 57, "trial": 77, "rt": 789, "response": "Beta"}, "54": {"stimulus": 78, "trial": 54, "rt": 965, "response": "Beta"}, "42": {"stimulus": 47, "trial": 42, "rt": 1052, "response": "Beta"}, "48": {"stimulus": 55, "trial": 48, "rt": 1492, "response": "Alpha"}, "43": {"stimulus": 15, "trial": 43, "rt": 2796, "response": "Beta"}, "60": {"stimulus": 4, "trial": 60, "rt": 700, "response": "Beta"}, "61": {"stimulus": 37, "trial": 61, "rt": 1134, "response": "Alpha"}, "62": {"stimulus": 43, "trial": 62, "rt": 1653, "response": "Alpha"}, "63": {"stimulus": 21, "trial": 63, "rt": 1428, "response": "Beta"}, "64": {"stimulus": 75, "trial": 64, "rt": 614, "response": "Beta"}, "49": {"stimulus": 0, "trial": 49, "rt": 1030, "response": "Alpha"}, "66": {"stimulus": 46, "trial": 66, "rt": 2284, "response": "Alpha"}, "67": {"stimulus": 35, "trial": 67, "rt": 732, "response": "Alpha"}, "68": {"stimulus": 64, "trial": 68, "rt": 927, "response": "Alpha"}, "69": {"stimulus": 73, "trial": 69, "rt": 701, "response": "Alpha"}, "80": {"stimulus": 69, "trial": 80, "rt": 2821, "response": "Beta"}, "52": {"stimulus": 44, "trial": 52, "rt": 1132, "response": "Alpha"}, "53": {"stimulus": 30, "trial": 53, "rt": 1038, "response": "Beta"}, "24": {"stimulus": 28, "trial": 24, "rt": 1894, "response": "Alpha"}, "25": {"stimulus": 17, "trial": 25, "rt": 835, "response": "Alpha"}, "26": {"stimulus": 41, "trial": 26, "rt": 1180, "response": "Beta"}, "27": {"stimulus": 65, "trial": 27, "rt": 1757, "response": "Beta"}, "20": {"stimulus": 52, "trial": 20, "rt": 1613, "response": "Alpha"}, "21": {"stimulus": 23, "trial": 21, "rt": 963, "response": "Beta"}, "22": {"stimulus": 12, "trial": 22, "rt": 1380, "response": "Beta"}, "23": {"stimulus": 5, "trial": 23, "rt": 908, "response": "Beta"}, "46": {"stimulus": 54, "trial": 46, "rt": 836, "response": "Alpha"}, "47": {"stimulus": 50, "trial": 47, "rt": 1532, "response": "Beta"}, "44": {"stimulus": 0, "trial": 44, "rt": 1109, "response": "Alpha"}, "45": {"stimulus": 8, "trial": 45, "rt": 684, "response": "Alpha"}, "28": {"stimulus": 42, "trial": 28, "rt": 1653, "response": "Beta"}, "29": {"stimulus": 80, "trial": 29, "rt": 1125, "response": "Alpha"}, "40": {"stimulus": 49, "trial": 40, "rt": 1190, "response": "Beta"}, "41": {"stimulus": 29, "trial": 41, "rt": 1804, "response": "Beta"}, "1": {"stimulus": 38, "trial": 1, "rt": 2522, "response": "Alpha"}, "0": {"stimulus": 63, "trial": 0, "rt": 4084, "response": "Alpha"}, "3": {"stimulus": 14, "trial": 3, "rt": 1045, "response": "Beta"}, "2": {"stimulus": 70, "trial": 2, "rt": 1572, "response": "Beta"}, "5": {"stimulus": 71, "trial": 5, "rt": 708, "response": "Alpha"}, "4": {"stimulus": 27, "trial": 4, "rt": 989, "response": "Alpha"}, "7": {"stimulus": 33, "trial": 7, "rt": 781, "response": "Beta"}, "6": {"stimulus": 76, "trial": 6, "rt": 1148, "response": "Beta"}, "9": {"stimulus": 58, "trial": 9, "rt": 1981, "response": "Beta"}, "8": {"stimulus": 53, "trial": 8, "rt": 1212, "response": "Alpha"}, "78": {"stimulus": 79, "trial": 78, "rt": 1693, "response": "Alpha"}, "51": {"stimulus": 59, "trial": 51, "rt": 837, "response": "Beta"}, "39": {"stimulus": 22, "trial": 39, "rt": 989, "response": "Beta"}, "65": {"stimulus": 77, "trial": 65, "rt": 812, "response": "Beta"}, "76": {"stimulus": 56, "trial": 76, "rt": 2388, "response": "Beta"}, "75": {"stimulus": 3, "trial": 75, "rt": 1102, "response": "Beta"}, "38": {"stimulus": 25, "trial": 38, "rt": 2036, "response": "Alpha"}, "73": {"stimulus": 61, "trial": 73, "rt": 1245, "response": "Alpha"}, "72": {"stimulus": 6, "trial": 72, "rt": 1364, "response": "Beta"}, "71": {"stimulus": 74, "trial": 71, "rt": 5229, "response": "Alpha"}, "70": {"stimulus": 68, "trial": 70, "rt": 1013, "response": "Beta"}, "59": {"stimulus": 60, "trial": 59, "rt": 1100, "response": "Beta"}, "79": {"stimulus": 18, "trial": 79, "rt": 1885, "response": "Alpha"}, "58": {"stimulus": 72, "trial": 58, "rt": 774, "response": "Alpha"}, "11": {"stimulus": 51, "trial": 11, "rt": 778, "response": "Beta"}, "10": {"stimulus": 31, "trial": 10, "rt": 870, "response": "Beta"}, "13": {"stimulus": 11, "trial": 13, "rt": 3557, "response": "Beta"}, "12": {"stimulus": 34, "trial": 12, "rt": 2261, "response": "Alpha"}, "15": {"stimulus": 40, "trial": 15, "rt": 972, "response": "Beta"}, "14": {"stimulus": 36, "trial": 14, "rt": 917, "response": "Alpha"}, "17": {"stimulus": 32, "trial": 17, "rt": 948, "response": "Beta"}, "16": {"stimulus": 48, "trial": 16, "rt": 2157, "response": "Beta"}, "19": {"stimulus": 26, "trial": 19, "rt": 804, "response": "Alpha"}, "18": {"stimulus": 20, "trial": 18, "rt": 1245, "response": "Alpha"}, "31": {"stimulus": 16, "trial": 31, "rt": 1862, "response": "Alpha"}, "30": {"stimulus": 62, "trial": 30, "rt": 821, "response": "Alpha"}, "37": {"stimulus": 67, "trial": 37, "rt": 813, "response": "Beta"}, "36": {"stimulus": 24, "trial": 36, "rt": 2428, "response": "Beta"}, "35": {"stimulus": 9, "trial": 35, "rt": 918, "response": "Alpha"}, "34": {"stimulus": 10, "trial": 34, "rt": 684, "response": "Alpha"}, "33": {"stimulus": 19, "trial": 33, "rt": 1924, "response": "Alpha"}, "55": {"stimulus": 7, "trial": 55, "rt": 572, "response": "Beta"}, "74": {"stimulus": 13, "trial": 74, "rt": 948, "response": "Beta"}, "32": {"stimulus": 66, "trial": 32, "rt": 1205, "response": "Beta"}, "57": {"stimulus": 1, "trial": 57, "rt": 4084, "response": "Alpha"}, "50": {"stimulus": 2, "trial": 50, "rt": 2332, "response": "Beta"}}, "experiment": {"Paradigm": "TACL", "Stimuli": "Size-Color Squares and Size-Orientation Circles", "Experiment": "Generating-Multiple-Categories"}, "submit": {"timeTotal": 463370, "age": "59", "comments": "i liked it, thank you!", "sex": "female"}}