{"info": {"finish": 1554551045093, "participant": 131, "exposed": true, "lab": false, "start": 1554550679223, "counterbalance": 2, "stimtype": "Squares", "gentype": 1, "condition": "Corner_S", "browser": {"platform": "Win32", "userAgent": "Mozilla/5.0 (Windows NT 10.0; Win64; x64) AppleWebKit/537.36 (KHTML, like Gecko) Chrome/73.0.3683.86 Safari/537.36"}}, "observation": {"11": {"stimulus": 0, "trial": 11, "rt": 2026}, "10": {"stimulus": 8, "trial": 10, "rt": 2475}, "1": {"stimulus": 80, "trial": 1, "rt": 2659}, "0": {"stimulus": 0, "trial": 0, "rt": 5821}, "3": {"stimulus": 8, "trial": 3, "rt": 3725}, "2": {"stimulus": 72, "trial": 2, "rt": 3543}, "5": {"stimulus": 8, "trial": 5, "rt": 2593}, "4": {"stimulus": 0, "trial": 4, "rt": 2486}, "7": {"stimulus": 72, "trial": 7, "rt": 2739}, "6": {"stimulus": 80, "trial": 6, "rt": 3501}, "9": {"stimulus": 72, "trial": 9, "rt": 3358}, "8": {"stimulus": 80, "trial": 8, "rt": 3882}}, "generation": {"1": {"category": "Beta", "trial": 1, "stimulus": 8, "rt": 8614}, "0": {"category": "Beta", "trial": 0, "stimulus": 0, "rt": 49307}, "3": {"category": "Beta", "trial": 3, "stimulus": 80, "rt": 11003}, "2": {"category": "Beta", "trial": 2, "stimulus": 72, "rt": 6593}}, "generalization": {"56": {"stimulus": 2, "trial": 56, "rt": 1190, "response": "Alpha"}, "77": {"stimulus": 5, "trial": 77, "rt": 750, "response": "Alpha"}, "54": {"stimulus": 27, "trial": 54, "rt": 888, "response": "Alpha"}, "42": {"stimulus": 62, "trial": 42, "rt": 1597, "response": "Alpha"}, "48": {"stimulus": 10, "trial": 48, "rt": 1545, "response": "Beta"}, "43": {"stimulus": 70, "trial": 43, "rt": 1266, "response": "Alpha"}, "60": {"stimulus": 56, "trial": 60, "rt": 1020, "response": "Alpha"}, "61": {"stimulus": 21, "trial": 61, "rt": 663, "response": "Alpha"}, "62": {"stimulus": 4, "trial": 62, "rt": 1111, "response": "Alpha"}, "63": {"stimulus": 69, "trial": 63, "rt": 815, "response": "Alpha"}, "64": {"stimulus": 71, "trial": 64, "rt": 2408, "response": "Beta"}, "49": {"stimulus": 75, "trial": 49, "rt": 2974, "response": "Alpha"}, "66": {"stimulus": 11, "trial": 66, "rt": 917, "response": "Alpha"}, "67": {"stimulus": 35, "trial": 67, "rt": 1670, "response": "Alpha"}, "68": {"stimulus": 26, "trial": 68, "rt": 1833, "response": "Alpha"}, "69": {"stimulus": 7, "trial": 69, "rt": 1110, "response": "Alpha"}, "80": {"stimulus": 9, "trial": 80, "rt": 2074, "response": "Beta"}, "52": {"stimulus": 47, "trial": 52, "rt": 3125, "response": "Alpha"}, "53": {"stimulus": 18, "trial": 53, "rt": 2443, "response": "Alpha"}, "24": {"stimulus": 74, "trial": 24, "rt": 985, "response": "Alpha"}, "25": {"stimulus": 28, "trial": 25, "rt": 2231, "response": "Alpha"}, "26": {"stimulus": 54, "trial": 26, "rt": 1109, "response": "Beta"}, "27": {"stimulus": 40, "trial": 27, "rt": 974, "response": "Alpha"}, "20": {"stimulus": 17, "trial": 20, "rt": 1259, "response": "Beta"}, "21": {"stimulus": 37, "trial": 21, "rt": 1768, "response": "Alpha"}, "22": {"stimulus": 20, "trial": 22, "rt": 1344, "response": "Alpha"}, "23": {"stimulus": 3, "trial": 23, "rt": 869, "response": "Alpha"}, "46": {"stimulus": 16, "trial": 46, "rt": 679, "response": "Alpha"}, "47": {"stimulus": 44, "trial": 47, "rt": 668, "response": "Alpha"}, "44": {"stimulus": 24, "trial": 44, "rt": 941, "response": "Alpha"}, "45": {"stimulus": 68, "trial": 45, "rt": 716, "response": "Alpha"}, "28": {"stimulus": 34, "trial": 28, "rt": 1977, "response": "Alpha"}, "29": {"stimulus": 51, "trial": 29, "rt": 885, "response": "Alpha"}, "40": {"stimulus": 38, "trial": 40, "rt": 895, "response": "Alpha"}, "41": {"stimulus": 58, "trial": 41, "rt": 825, "response": "Alpha"}, "1": {"stimulus": 77, "trial": 1, "rt": 1749, "response": "Alpha"}, "0": {"stimulus": 31, "trial": 0, "rt": 1665, "response": "Alpha"}, "3": {"stimulus": 59, "trial": 3, "rt": 971, "response": "Alpha"}, "2": {"stimulus": 30, "trial": 2, "rt": 1567, "response": "Alpha"}, "5": {"stimulus": 43, "trial": 5, "rt": 1015, "response": "Alpha"}, "4": {"stimulus": 67, "trial": 4, "rt": 628, "response": "Alpha"}, "7": {"stimulus": 57, "trial": 7, "rt": 1210, "response": "Alpha"}, "6": {"stimulus": 0, "trial": 6, "rt": 2050, "response": "Beta"}, "9": {"stimulus": 46, "trial": 9, "rt": 2400, "response": "Beta"}, "8": {"stimulus": 25, "trial": 8, "rt": 2615, "response": "Beta"}, "78": {"stimulus": 41, "trial": 78, "rt": 535, "response": "Alpha"}, "51": {"stimulus": 33, "trial": 51, "rt": 778, "response": "Alpha"}, "39": {"stimulus": 55, "trial": 39, "rt": 1809, "response": "Alpha"}, "65": {"stimulus": 49, "trial": 65, "rt": 1142, "response": "Alpha"}, "76": {"stimulus": 23, "trial": 76, "rt": 777, "response": "Alpha"}, "75": {"stimulus": 50, "trial": 75, "rt": 952, "response": "Alpha"}, "38": {"stimulus": 52, "trial": 38, "rt": 809, "response": "Alpha"}, "73": {"stimulus": 19, "trial": 73, "rt": 1298, "response": "Alpha"}, "72": {"stimulus": 73, "trial": 72, "rt": 2035, "response": "Beta"}, "71": {"stimulus": 15, "trial": 71, "rt": 908, "response": "Alpha"}, "70": {"stimulus": 1, "trial": 70, "rt": 1802, "response": "Beta"}, "59": {"stimulus": 48, "trial": 59, "rt": 688, "response": "Alpha"}, "79": {"stimulus": 80, "trial": 79, "rt": 1984, "response": "Beta"}, "58": {"stimulus": 12, "trial": 58, "rt": 911, "response": "Alpha"}, "11": {"stimulus": 65, "trial": 11, "rt": 1232, "response": "Alpha"}, "10": {"stimulus": 0, "trial": 10, "rt": 1321, "response": "Beta"}, "13": {"stimulus": 45, "trial": 13, "rt": 1221, "response": "Beta"}, "12": {"stimulus": 14, "trial": 12, "rt": 2166, "response": "Alpha"}, "15": {"stimulus": 72, "trial": 15, "rt": 1189, "response": "Beta"}, "14": {"stimulus": 32, "trial": 14, "rt": 1379, "response": "Alpha"}, "17": {"stimulus": 42, "trial": 17, "rt": 856, "response": "Alpha"}, "16": {"stimulus": 60, "trial": 16, "rt": 2407, "response": "Alpha"}, "19": {"stimulus": 6, "trial": 19, "rt": 2809, "response": "Alpha"}, "18": {"stimulus": 36, "trial": 18, "rt": 3615, "response": "Alpha"}, "31": {"stimulus": 53, "trial": 31, "rt": 2109, "response": "Alpha"}, "30": {"stimulus": 63, "trial": 30, "rt": 1122, "response": "Beta"}, "37": {"stimulus": 8, "trial": 37, "rt": 1239, "response": "Beta"}, "36": {"stimulus": 66, "trial": 36, "rt": 894, "response": "Alpha"}, "35": {"stimulus": 78, "trial": 35, "rt": 774, "response": "Alpha"}, "34": {"stimulus": 29, "trial": 34, "rt": 1267, "response": "Alpha"}, "33": {"stimulus": 76, "trial": 33, "rt": 987, "response": "Alpha"}, "55": {"stimulus": 79, "trial": 55, "rt": 1974, "response": "Alpha"}, "74": {"stimulus": 64, "trial": 74, "rt": 1586, "response": "Alpha"}, "32": {"stimulus": 13, "trial": 32, "rt": 995, "response": "Alpha"}, "57": {"stimulus": 61, "trial": 57, "rt": 1547, "response": "Alpha"}, "50": {"stimulus": 22, "trial": 50, "rt": 719, "response": "Alpha"}}, "experiment": {"Paradigm": "TACL", "Stimuli": "Size-Color Squares and Size-Orientation Circles", "Experiment": "Generating-Multiple-Categories"}, "submit": {"timeTotal": 366274, "age": "49", "comments": "no comments", "sex": "female"}}