{"info": {"finish": 1554495599644, "participant": 14, "exposed": true, "lab": false, "start": 1554495322698, "counterbalance": 6, "stimtype": "Squares", "gentype": 1, "condition": "Corner_S", "browser": {"platform": "Win32", "userAgent": "Mozilla/5.0 (Windows NT 10.0; Win64; x64) AppleWebKit/537.36 (KHTML, like Gecko) Chrome/73.0.3683.103 Safari/537.36"}}, "observation": {"11": {"stimulus": 80, "trial": 11, "rt": 1093}, "10": {"stimulus": 8, "trial": 10, "rt": 1118}, "1": {"stimulus": 8, "trial": 1, "rt": 2086}, "0": {"stimulus": 80, "trial": 0, "rt": 2466}, "3": {"stimulus": 0, "trial": 3, "rt": 1449}, "2": {"stimulus": 72, "trial": 2, "rt": 1589}, "5": {"stimulus": 80, "trial": 5, "rt": 1472}, "4": {"stimulus": 0, "trial": 4, "rt": 1467}, "7": {"stimulus": 72, "trial": 7, "rt": 1292}, "6": {"stimulus": 8, "trial": 6, "rt": 1277}, "9": {"stimulus": 0, "trial": 9, "rt": 1094}, "8": {"stimulus": 72, "trial": 8, "rt": 1138}}, "generation": {"1": {"category": "Beta", "trial": 1, "stimulus": 75, "rt": 10283}, "0": {"category": "Beta", "trial": 0, "stimulus": 48, "rt": 11652}, "3": {"category": "Beta", "trial": 3, "stimulus": 21, "rt": 3578}, "2": {"category": "Beta", "trial": 2, "stimulus": 3, "rt": 3966}}, "generalization": {"56": {"stimulus": 32, "trial": 56, "rt": 560, "response": "Beta"}, "77": {"stimulus": 38, "trial": 77, "rt": 2736, "response": "Beta"}, "54": {"stimulus": 51, "trial": 54, "rt": 1176, "response": "Beta"}, "42": {"stimulus": 20, "trial": 42, "rt": 785, "response": "Beta"}, "48": {"stimulus": 49, "trial": 48, "rt": 791, "response": "Beta"}, "43": {"stimulus": 76, "trial": 43, "rt": 618, "response": "Beta"}, "60": {"stimulus": 44, "trial": 60, "rt": 574, "response": "Alpha"}, "61": {"stimulus": 67, "trial": 61, "rt": 724, "response": "Beta"}, "62": {"stimulus": 79, "trial": 62, "rt": 565, "response": "Alpha"}, "63": {"stimulus": 23, "trial": 63, "rt": 764, "response": "Beta"}, "64": {"stimulus": 36, "trial": 64, "rt": 596, "response": "Alpha"}, "49": {"stimulus": 62, "trial": 49, "rt": 1206, "response": "Alpha"}, "66": {"stimulus": 2, "trial": 66, "rt": 1531, "response": "Beta"}, "67": {"stimulus": 80, "trial": 67, "rt": 716, "response": "Alpha"}, "68": {"stimulus": 17, "trial": 68, "rt": 763, "response": "Alpha"}, "69": {"stimulus": 30, "trial": 69, "rt": 1002, "response": "Beta"}, "80": {"stimulus": 5, "trial": 80, "rt": 732, "response": "Beta"}, "52": {"stimulus": 60, "trial": 52, "rt": 1849, "response": "Beta"}, "53": {"stimulus": 34, "trial": 53, "rt": 486, "response": "Alpha"}, "24": {"stimulus": 0, "trial": 24, "rt": 1069, "response": "Alpha"}, "25": {"stimulus": 13, "trial": 25, "rt": 609, "response": "Beta"}, "26": {"stimulus": 53, "trial": 26, "rt": 517, "response": "Alpha"}, "27": {"stimulus": 41, "trial": 27, "rt": 1750, "response": "Beta"}, "20": {"stimulus": 40, "trial": 20, "rt": 436, "response": "Beta"}, "21": {"stimulus": 24, "trial": 21, "rt": 479, "response": "Alpha"}, "22": {"stimulus": 7, "trial": 22, "rt": 448, "response": "Alpha"}, "23": {"stimulus": 71, "trial": 23, "rt": 463, "response": "Alpha"}, "46": {"stimulus": 50, "trial": 46, "rt": 873, "response": "Beta"}, "47": {"stimulus": 37, "trial": 47, "rt": 925, "response": "Alpha"}, "44": {"stimulus": 9, "trial": 44, "rt": 572, "response": "Alpha"}, "45": {"stimulus": 6, "trial": 45, "rt": 1634, "response": "Beta"}, "28": {"stimulus": 19, "trial": 28, "rt": 970, "response": "Beta"}, "29": {"stimulus": 43, "trial": 29, "rt": 513, "response": "Alpha"}, "40": {"stimulus": 0, "trial": 40, "rt": 755, "response": "Alpha"}, "41": {"stimulus": 45, "trial": 41, "rt": 616, "response": "Alpha"}, "1": {"stimulus": 65, "trial": 1, "rt": 1050, "response": "Beta"}, "0": {"stimulus": 3, "trial": 0, "rt": 1269, "response": "Beta"}, "3": {"stimulus": 33, "trial": 3, "rt": 826, "response": "Alpha"}, "2": {"stimulus": 27, "trial": 2, "rt": 686, "response": "Alpha"}, "5": {"stimulus": 16, "trial": 5, "rt": 886, "response": "Alpha"}, "4": {"stimulus": 21, "trial": 4, "rt": 794, "response": "Beta"}, "7": {"stimulus": 69, "trial": 7, "rt": 743, "response": "Alpha"}, "6": {"stimulus": 18, "trial": 6, "rt": 1308, "response": "Alpha"}, "9": {"stimulus": 10, "trial": 9, "rt": 1619, "response": "Beta"}, "8": {"stimulus": 42, "trial": 8, "rt": 641, "response": "Alpha"}, "78": {"stimulus": 26, "trial": 78, "rt": 589, "response": "Alpha"}, "51": {"stimulus": 55, "trial": 51, "rt": 577, "response": "Alpha"}, "39": {"stimulus": 11, "trial": 39, "rt": 1396, "response": "Beta"}, "65": {"stimulus": 31, "trial": 65, "rt": 736, "response": "Beta"}, "76": {"stimulus": 70, "trial": 76, "rt": 1344, "response": "Alpha"}, "75": {"stimulus": 48, "trial": 75, "rt": 558, "response": "Beta"}, "38": {"stimulus": 63, "trial": 38, "rt": 508, "response": "Alpha"}, "73": {"stimulus": 68, "trial": 73, "rt": 787, "response": "Beta"}, "72": {"stimulus": 52, "trial": 72, "rt": 846, "response": "Alpha"}, "71": {"stimulus": 58, "trial": 71, "rt": 638, "response": "Beta"}, "70": {"stimulus": 46, "trial": 70, "rt": 1672, "response": "Beta"}, "59": {"stimulus": 77, "trial": 59, "rt": 838, "response": "Beta"}, "79": {"stimulus": 73, "trial": 79, "rt": 1979, "response": "Alpha"}, "58": {"stimulus": 56, "trial": 58, "rt": 1103, "response": "Beta"}, "11": {"stimulus": 22, "trial": 11, "rt": 1026, "response": "Beta"}, "10": {"stimulus": 61, "trial": 10, "rt": 605, "response": "Alpha"}, "13": {"stimulus": 64, "trial": 13, "rt": 533, "response": "Alpha"}, "12": {"stimulus": 72, "trial": 12, "rt": 1857, "response": "Alpha"}, "15": {"stimulus": 29, "trial": 15, "rt": 1527, "response": "Beta"}, "14": {"stimulus": 4, "trial": 14, "rt": 1327, "response": "Beta"}, "17": {"stimulus": 47, "trial": 17, "rt": 1221, "response": "Beta"}, "16": {"stimulus": 54, "trial": 16, "rt": 1011, "response": "Alpha"}, "19": {"stimulus": 35, "trial": 19, "rt": 523, "response": "Alpha"}, "18": {"stimulus": 66, "trial": 18, "rt": 579, "response": "Beta"}, "31": {"stimulus": 8, "trial": 31, "rt": 545, "response": "Alpha"}, "30": {"stimulus": 74, "trial": 30, "rt": 935, "response": "Beta"}, "37": {"stimulus": 78, "trial": 37, "rt": 629, "response": "Alpha"}, "36": {"stimulus": 75, "trial": 36, "rt": 941, "response": "Beta"}, "35": {"stimulus": 12, "trial": 35, "rt": 711, "response": "Beta"}, "34": {"stimulus": 28, "trial": 34, "rt": 1092, "response": "Beta"}, "33": {"stimulus": 15, "trial": 33, "rt": 505, "response": "Alpha"}, "55": {"stimulus": 59, "trial": 55, "rt": 492, "response": "Beta"}, "74": {"stimulus": 57, "trial": 74, "rt": 884, "response": "Beta"}, "32": {"stimulus": 25, "trial": 32, "rt": 603, "response": "Alpha"}, "57": {"stimulus": 1, "trial": 57, "rt": 679, "response": "Alpha"}, "50": {"stimulus": 14, "trial": 50, "rt": 633, "response": "Beta"}}, "experiment": {"Paradigm": "TACL", "Stimuli": "Size-Color Squares and Size-Orientation Circles", "Experiment": "Generating-Multiple-Categories"}, "submit": {"timeTotal": 277168, "age": "32", "comments": "thanks", "sex": "male"}}