{"info": {"finish": 1554495899969, "participant": 15, "exposed": true, "lab": false, "start": 1554495418537, "counterbalance": 4, "stimtype": "Squares", "gentype": 1, "condition": "Corner_S", "browser": {"platform": "Win32", "userAgent": "Mozilla/5.0 (Windows NT 10.0; Win64; x64) AppleWebKit/537.36 (KHTML, like Gecko) Chrome/73.0.3683.86 Safari/537.36"}}, "observation": {"11": {"stimulus": 72, "trial": 11, "rt": 9240}, "10": {"stimulus": 80, "trial": 10, "rt": 1598}, "1": {"stimulus": 8, "trial": 1, "rt": 2181}, "0": {"stimulus": 72, "trial": 0, "rt": 2102}, "3": {"stimulus": 0, "trial": 3, "rt": 34656}, "2": {"stimulus": 80, "trial": 2, "rt": 1767}, "5": {"stimulus": 80, "trial": 5, "rt": 1392}, "4": {"stimulus": 8, "trial": 4, "rt": 1680}, "7": {"stimulus": 0, "trial": 7, "rt": 1358}, "6": {"stimulus": 72, "trial": 6, "rt": 1352}, "9": {"stimulus": 0, "trial": 9, "rt": 1438}, "8": {"stimulus": 8, "trial": 8, "rt": 1360}}, "generation": {"1": {"category": "Beta", "trial": 1, "stimulus": 56, "rt": 5190}, "0": {"category": "Beta", "trial": 0, "stimulus": 40, "rt": 9653}, "3": {"category": "Beta", "trial": 3, "stimulus": 12, "rt": 4247}, "2": {"category": "Beta", "trial": 2, "stimulus": 24, "rt": 10263}}, "generalization": {"56": {"stimulus": 22, "trial": 56, "rt": 671, "response": "Beta"}, "77": {"stimulus": 38, "trial": 77, "rt": 832, "response": "Beta"}, "54": {"stimulus": 49, "trial": 54, "rt": 743, "response": "Beta"}, "42": {"stimulus": 68, "trial": 42, "rt": 576, "response": "Beta"}, "48": {"stimulus": 50, "trial": 48, "rt": 502, "response": "Beta"}, "43": {"stimulus": 47, "trial": 43, "rt": 711, "response": "Beta"}, "60": {"stimulus": 20, "trial": 60, "rt": 702, "response": "Alpha"}, "61": {"stimulus": 21, "trial": 61, "rt": 37510, "response": "Beta"}, "62": {"stimulus": 59, "trial": 62, "rt": 430, "response": "Beta"}, "63": {"stimulus": 43, "trial": 63, "rt": 510, "response": "Beta"}, "64": {"stimulus": 12, "trial": 64, "rt": 615, "response": "Beta"}, "49": {"stimulus": 19, "trial": 49, "rt": 666, "response": "Alpha"}, "66": {"stimulus": 3, "trial": 66, "rt": 2767, "response": "Alpha"}, "67": {"stimulus": 31, "trial": 67, "rt": 518, "response": "Beta"}, "68": {"stimulus": 15, "trial": 68, "rt": 414, "response": "Beta"}, "69": {"stimulus": 53, "trial": 69, "rt": 12078, "response": "Alpha"}, "80": {"stimulus": 76, "trial": 80, "rt": 478, "response": "Beta"}, "52": {"stimulus": 80, "trial": 52, "rt": 711, "response": "Alpha"}, "53": {"stimulus": 66, "trial": 53, "rt": 590, "response": "Beta"}, "24": {"stimulus": 70, "trial": 24, "rt": 573, "response": "Beta"}, "25": {"stimulus": 72, "trial": 25, "rt": 718, "response": "Alpha"}, "26": {"stimulus": 10, "trial": 26, "rt": 662, "response": "Alpha"}, "27": {"stimulus": 30, "trial": 27, "rt": 599, "response": "Beta"}, "20": {"stimulus": 34, "trial": 20, "rt": 944, "response": "Beta"}, "21": {"stimulus": 29, "trial": 21, "rt": 703, "response": "Beta"}, "22": {"stimulus": 8, "trial": 22, "rt": 798, "response": "Alpha"}, "23": {"stimulus": 67, "trial": 23, "rt": 528, "response": "Beta"}, "46": {"stimulus": 51, "trial": 46, "rt": 574, "response": "Beta"}, "47": {"stimulus": 0, "trial": 47, "rt": 678, "response": "Alpha"}, "44": {"stimulus": 25, "trial": 44, "rt": 606, "response": "Beta"}, "45": {"stimulus": 52, "trial": 45, "rt": 694, "response": "Beta"}, "28": {"stimulus": 64, "trial": 28, "rt": 670, "response": "Alpha"}, "29": {"stimulus": 78, "trial": 29, "rt": 510, "response": "Beta"}, "40": {"stimulus": 7, "trial": 40, "rt": 23654, "response": "Alpha"}, "41": {"stimulus": 44, "trial": 41, "rt": 1151, "response": "Beta"}, "1": {"stimulus": 54, "trial": 1, "rt": 790, "response": "Alpha"}, "0": {"stimulus": 26, "trial": 0, "rt": 2590, "response": "Alpha"}, "3": {"stimulus": 36, "trial": 3, "rt": 2231, "response": "Alpha"}, "2": {"stimulus": 42, "trial": 2, "rt": 920, "response": "Beta"}, "5": {"stimulus": 33, "trial": 5, "rt": 735, "response": "Beta"}, "4": {"stimulus": 4, "trial": 4, "rt": 804, "response": "Beta"}, "7": {"stimulus": 11, "trial": 7, "rt": 862, "response": "Beta"}, "6": {"stimulus": 40, "trial": 6, "rt": 614, "response": "Beta"}, "9": {"stimulus": 48, "trial": 9, "rt": 439, "response": "Beta"}, "8": {"stimulus": 58, "trial": 8, "rt": 527, "response": "Beta"}, "78": {"stimulus": 45, "trial": 78, "rt": 6311, "response": "Alpha"}, "51": {"stimulus": 14, "trial": 51, "rt": 713, "response": "Beta"}, "39": {"stimulus": 62, "trial": 39, "rt": 2223, "response": "Alpha"}, "65": {"stimulus": 74, "trial": 65, "rt": 727, "response": "Alpha"}, "76": {"stimulus": 16, "trial": 76, "rt": 452, "response": "Beta"}, "75": {"stimulus": 24, "trial": 75, "rt": 527, "response": "Beta"}, "38": {"stimulus": 41, "trial": 38, "rt": 615, "response": "Beta"}, "73": {"stimulus": 55, "trial": 73, "rt": 814, "response": "Alpha"}, "72": {"stimulus": 1, "trial": 72, "rt": 686, "response": "Alpha"}, "71": {"stimulus": 46, "trial": 71, "rt": 22052, "response": "Alpha"}, "70": {"stimulus": 9, "trial": 70, "rt": 1277, "response": "Alpha"}, "59": {"stimulus": 56, "trial": 59, "rt": 878, "response": "Alpha"}, "79": {"stimulus": 0, "trial": 79, "rt": 712, "response": "Alpha"}, "58": {"stimulus": 17, "trial": 58, "rt": 1454, "response": "Alpha"}, "11": {"stimulus": 71, "trial": 11, "rt": 1248, "response": "Alpha"}, "10": {"stimulus": 73, "trial": 10, "rt": 944, "response": "Alpha"}, "13": {"stimulus": 13, "trial": 13, "rt": 775, "response": "Beta"}, "12": {"stimulus": 69, "trial": 12, "rt": 774, "response": "Beta"}, "15": {"stimulus": 32, "trial": 15, "rt": 782, "response": "Beta"}, "14": {"stimulus": 28, "trial": 14, "rt": 983, "response": "Beta"}, "17": {"stimulus": 35, "trial": 17, "rt": 1320, "response": "Alpha"}, "16": {"stimulus": 18, "trial": 16, "rt": 622, "response": "Alpha"}, "19": {"stimulus": 23, "trial": 19, "rt": 847, "response": "Beta"}, "18": {"stimulus": 63, "trial": 18, "rt": 744, "response": "Alpha"}, "31": {"stimulus": 60, "trial": 31, "rt": 591, "response": "Beta"}, "30": {"stimulus": 6, "trial": 30, "rt": 886, "response": "Beta"}, "37": {"stimulus": 5, "trial": 37, "rt": 767, "response": "Beta"}, "36": {"stimulus": 79, "trial": 36, "rt": 655, "response": "Beta"}, "35": {"stimulus": 61, "trial": 35, "rt": 1207, "response": "Beta"}, "34": {"stimulus": 75, "trial": 34, "rt": 720, "response": "Beta"}, "33": {"stimulus": 27, "trial": 33, "rt": 1270, "response": "Beta"}, "55": {"stimulus": 57, "trial": 55, "rt": 614, "response": "Beta"}, "74": {"stimulus": 37, "trial": 74, "rt": 679, "response": "Alpha"}, "32": {"stimulus": 65, "trial": 32, "rt": 1142, "response": "Alpha"}, "57": {"stimulus": 2, "trial": 57, "rt": 1111, "response": "Beta"}, "50": {"stimulus": 77, "trial": 50, "rt": 526, "response": "Beta"}}, "experiment": {"Paradigm": "TACL", "Stimuli": "Size-Color Squares and Size-Orientation Circles", "Experiment": "Generating-Multiple-Categories"}, "submit": {"timeTotal": 481697, "age": "28", "comments": "It was fine", "sex": "Male"}}