{"info": {"finish": 1554495986000, "participant": 16, "exposed": true, "lab": false, "start": 1554495763053, "counterbalance": 5, "stimtype": "Squares", "gentype": 1, "condition": "Corner_S", "browser": {"platform": "Win32", "userAgent": "Mozilla/5.0 (Windows NT 10.0; Win64; x64) AppleWebKit/537.36 (KHTML, like Gecko) Chrome/73.0.3683.86 Safari/537.36"}}, "observation": {"11": {"stimulus": 80, "trial": 11, "rt": 1468}, "10": {"stimulus": 72, "trial": 10, "rt": 1452}, "1": {"stimulus": 72, "trial": 1, "rt": 1640}, "0": {"stimulus": 80, "trial": 0, "rt": 2211}, "3": {"stimulus": 8, "trial": 3, "rt": 1506}, "2": {"stimulus": 0, "trial": 2, "rt": 1454}, "5": {"stimulus": 0, "trial": 5, "rt": 1738}, "4": {"stimulus": 80, "trial": 4, "rt": 1433}, "7": {"stimulus": 8, "trial": 7, "rt": 1577}, "6": {"stimulus": 72, "trial": 6, "rt": 1540}, "9": {"stimulus": 0, "trial": 9, "rt": 1804}, "8": {"stimulus": 8, "trial": 8, "rt": 1507}}, "generation": {"1": {"category": "Beta", "trial": 1, "stimulus": 30, "rt": 11060}, "0": {"category": "Beta", "trial": 0, "stimulus": 40, "rt": 11146}, "3": {"category": "Beta", "trial": 3, "stimulus": 20, "rt": 3336}, "2": {"category": "Beta", "trial": 2, "stimulus": 50, "rt": 1815}}, "generalization": {"56": {"stimulus": 50, "trial": 56, "rt": 803, "response": "Alpha"}, "77": {"stimulus": 31, "trial": 77, "rt": 514, "response": "Beta"}, "54": {"stimulus": 55, "trial": 54, "rt": 1100, "response": "Beta"}, "42": {"stimulus": 64, "trial": 42, "rt": 1090, "response": "Alpha"}, "48": {"stimulus": 67, "trial": 48, "rt": 649, "response": "Beta"}, "43": {"stimulus": 44, "trial": 43, "rt": 460, "response": "Alpha"}, "60": {"stimulus": 25, "trial": 60, "rt": 800, "response": "Alpha"}, "61": {"stimulus": 10, "trial": 61, "rt": 855, "response": "Beta"}, "62": {"stimulus": 15, "trial": 62, "rt": 956, "response": "Alpha"}, "63": {"stimulus": 22, "trial": 63, "rt": 658, "response": "Beta"}, "64": {"stimulus": 5, "trial": 64, "rt": 633, "response": "Beta"}, "49": {"stimulus": 35, "trial": 49, "rt": 594, "response": "Alpha"}, "66": {"stimulus": 0, "trial": 66, "rt": 548, "response": "Alpha"}, "67": {"stimulus": 69, "trial": 67, "rt": 493, "response": "Alpha"}, "68": {"stimulus": 0, "trial": 68, "rt": 881, "response": "Alpha"}, "69": {"stimulus": 57, "trial": 69, "rt": 1322, "response": "Beta"}, "80": {"stimulus": 42, "trial": 80, "rt": 733, "response": "Alpha"}, "52": {"stimulus": 65, "trial": 52, "rt": 727, "response": "Beta"}, "53": {"stimulus": 49, "trial": 53, "rt": 824, "response": "Beta"}, "24": {"stimulus": 4, "trial": 24, "rt": 515, "response": "Beta"}, "25": {"stimulus": 37, "trial": 25, "rt": 921, "response": "Alpha"}, "26": {"stimulus": 53, "trial": 26, "rt": 1368, "response": "Alpha"}, "27": {"stimulus": 80, "trial": 27, "rt": 399, "response": "Alpha"}, "20": {"stimulus": 28, "trial": 20, "rt": 1253, "response": "Alpha"}, "21": {"stimulus": 54, "trial": 21, "rt": 988, "response": "Alpha"}, "22": {"stimulus": 74, "trial": 22, "rt": 818, "response": "Beta"}, "23": {"stimulus": 58, "trial": 23, "rt": 548, "response": "Beta"}, "46": {"stimulus": 12, "trial": 46, "rt": 827, "response": "Beta"}, "47": {"stimulus": 68, "trial": 47, "rt": 1267, "response": "Beta"}, "44": {"stimulus": 41, "trial": 44, "rt": 711, "response": "Beta"}, "45": {"stimulus": 46, "trial": 45, "rt": 1398, "response": "Beta"}, "28": {"stimulus": 17, "trial": 28, "rt": 479, "response": "Alpha"}, "29": {"stimulus": 71, "trial": 29, "rt": 383, "response": "Alpha"}, "40": {"stimulus": 14, "trial": 40, "rt": 934, "response": "Beta"}, "41": {"stimulus": 48, "trial": 41, "rt": 1273, "response": "Beta"}, "1": {"stimulus": 19, "trial": 1, "rt": 810, "response": "Alpha"}, "0": {"stimulus": 45, "trial": 0, "rt": 2104, "response": "Alpha"}, "3": {"stimulus": 9, "trial": 3, "rt": 850, "response": "Alpha"}, "2": {"stimulus": 56, "trial": 2, "rt": 733, "response": "Beta"}, "5": {"stimulus": 20, "trial": 5, "rt": 829, "response": "Alpha"}, "4": {"stimulus": 26, "trial": 4, "rt": 954, "response": "Alpha"}, "7": {"stimulus": 52, "trial": 7, "rt": 616, "response": "Alpha"}, "6": {"stimulus": 59, "trial": 6, "rt": 943, "response": "Beta"}, "9": {"stimulus": 2, "trial": 9, "rt": 819, "response": "Beta"}, "8": {"stimulus": 62, "trial": 8, "rt": 561, "response": "Alpha"}, "78": {"stimulus": 60, "trial": 78, "rt": 1005, "response": "Alpha"}, "51": {"stimulus": 36, "trial": 51, "rt": 668, "response": "Alpha"}, "39": {"stimulus": 33, "trial": 39, "rt": 809, "response": "Beta"}, "65": {"stimulus": 16, "trial": 65, "rt": 686, "response": "Alpha"}, "76": {"stimulus": 13, "trial": 76, "rt": 781, "response": "Beta"}, "75": {"stimulus": 3, "trial": 75, "rt": 772, "response": "Beta"}, "38": {"stimulus": 72, "trial": 38, "rt": 748, "response": "Beta"}, "73": {"stimulus": 75, "trial": 73, "rt": 633, "response": "Beta"}, "72": {"stimulus": 27, "trial": 72, "rt": 1214, "response": "Alpha"}, "71": {"stimulus": 66, "trial": 71, "rt": 600, "response": "Beta"}, "70": {"stimulus": 21, "trial": 70, "rt": 525, "response": "Beta"}, "59": {"stimulus": 70, "trial": 59, "rt": 531, "response": "Alpha"}, "79": {"stimulus": 43, "trial": 79, "rt": 531, "response": "Alpha"}, "58": {"stimulus": 78, "trial": 58, "rt": 951, "response": "Alpha"}, "11": {"stimulus": 7, "trial": 11, "rt": 664, "response": "Alpha"}, "10": {"stimulus": 47, "trial": 10, "rt": 717, "response": "Beta"}, "13": {"stimulus": 40, "trial": 13, "rt": 749, "response": "Beta"}, "12": {"stimulus": 34, "trial": 12, "rt": 451, "response": "Alpha"}, "15": {"stimulus": 61, "trial": 15, "rt": 572, "response": "Alpha"}, "14": {"stimulus": 24, "trial": 14, "rt": 649, "response": "Beta"}, "17": {"stimulus": 11, "trial": 17, "rt": 789, "response": "Beta"}, "16": {"stimulus": 30, "trial": 16, "rt": 664, "response": "Beta"}, "19": {"stimulus": 23, "trial": 19, "rt": 762, "response": "Beta"}, "18": {"stimulus": 77, "trial": 18, "rt": 1052, "response": "Beta"}, "31": {"stimulus": 63, "trial": 31, "rt": 671, "response": "Alpha"}, "30": {"stimulus": 76, "trial": 30, "rt": 616, "response": "Beta"}, "37": {"stimulus": 32, "trial": 37, "rt": 471, "response": "Beta"}, "36": {"stimulus": 38, "trial": 36, "rt": 733, "response": "Beta"}, "35": {"stimulus": 79, "trial": 35, "rt": 848, "response": "Alpha"}, "34": {"stimulus": 73, "trial": 34, "rt": 1460, "response": "Beta"}, "33": {"stimulus": 6, "trial": 33, "rt": 1384, "response": "Beta"}, "55": {"stimulus": 29, "trial": 55, "rt": 483, "response": "Beta"}, "74": {"stimulus": 1, "trial": 74, "rt": 1265, "response": "Beta"}, "32": {"stimulus": 8, "trial": 32, "rt": 756, "response": "Alpha"}, "57": {"stimulus": 18, "trial": 57, "rt": 919, "response": "Alpha"}, "50": {"stimulus": 51, "trial": 50, "rt": 796, "response": "Beta"}}, "experiment": {"Paradigm": "TACL", "Stimuli": "Size-Color Squares and Size-Orientation Circles", "Experiment": "Generating-Multiple-Categories"}, "submit": {"timeTotal": 223339, "age": "36", "comments": "It was okay.", "sex": "male"}}