{"info": {"finish": 1554496225349, "participant": 17, "exposed": true, "lab": false, "start": 1554495889144, "counterbalance": 5, "stimtype": "Circles", "gentype": 1, "condition": "Corner_C", "browser": {"platform": "Win32", "userAgent": "Mozilla/5.0 (Windows NT 6.1) AppleWebKit/537.36 (KHTML, like Gecko) Chrome/73.0.3683.86 Safari/537.36"}}, "observation": {"11": {"stimulus": 80, "trial": 11, "rt": 1381}, "10": {"stimulus": 0, "trial": 10, "rt": 1488}, "1": {"stimulus": 72, "trial": 1, "rt": 1471}, "0": {"stimulus": 80, "trial": 0, "rt": 3410}, "3": {"stimulus": 0, "trial": 3, "rt": 1346}, "2": {"stimulus": 8, "trial": 2, "rt": 1346}, "5": {"stimulus": 8, "trial": 5, "rt": 1399}, "4": {"stimulus": 80, "trial": 4, "rt": 1279}, "7": {"stimulus": 72, "trial": 7, "rt": 1335}, "6": {"stimulus": 0, "trial": 6, "rt": 1198}, "9": {"stimulus": 72, "trial": 9, "rt": 1246}, "8": {"stimulus": 8, "trial": 8, "rt": 1321}}, "generation": {"1": {"category": "Beta", "trial": 1, "stimulus": 57, "rt": 6908}, "0": {"category": "Beta", "trial": 0, "stimulus": 49, "rt": 7300}, "3": {"category": "Beta", "trial": 3, "stimulus": 75, "rt": 9226}, "2": {"category": "Beta", "trial": 2, "stimulus": 32, "rt": 6268}}, "generalization": {"56": {"stimulus": 52, "trial": 56, "rt": 801, "response": "Alpha"}, "77": {"stimulus": 76, "trial": 77, "rt": 759, "response": "Beta"}, "54": {"stimulus": 23, "trial": 54, "rt": 952, "response": "Beta"}, "42": {"stimulus": 63, "trial": 42, "rt": 7158, "response": "Alpha"}, "48": {"stimulus": 78, "trial": 48, "rt": 729, "response": "Alpha"}, "43": {"stimulus": 61, "trial": 43, "rt": 909, "response": "Alpha"}, "60": {"stimulus": 27, "trial": 60, "rt": 768, "response": "Alpha"}, "61": {"stimulus": 34, "trial": 61, "rt": 600, "response": "Alpha"}, "62": {"stimulus": 53, "trial": 62, "rt": 592, "response": "Alpha"}, "63": {"stimulus": 14, "trial": 63, "rt": 1687, "response": "Alpha"}, "64": {"stimulus": 0, "trial": 64, "rt": 6864, "response": "Alpha"}, "49": {"stimulus": 47, "trial": 49, "rt": 1351, "response": "Alpha"}, "66": {"stimulus": 22, "trial": 66, "rt": 1239, "response": "Beta"}, "67": {"stimulus": 36, "trial": 67, "rt": 782, "response": "Alpha"}, "68": {"stimulus": 67, "trial": 68, "rt": 1287, "response": "Beta"}, "69": {"stimulus": 56, "trial": 69, "rt": 1983, "response": "Beta"}, "80": {"stimulus": 71, "trial": 80, "rt": 558, "response": "Alpha"}, "52": {"stimulus": 57, "trial": 52, "rt": 1285, "response": "Beta"}, "53": {"stimulus": 40, "trial": 53, "rt": 1129, "response": "Beta"}, "24": {"stimulus": 11, "trial": 24, "rt": 1958, "response": "Alpha"}, "25": {"stimulus": 5, "trial": 25, "rt": 942, "response": "Beta"}, "26": {"stimulus": 20, "trial": 26, "rt": 1232, "response": "Alpha"}, "27": {"stimulus": 19, "trial": 27, "rt": 848, "response": "Alpha"}, "20": {"stimulus": 21, "trial": 20, "rt": 1096, "response": "Beta"}, "21": {"stimulus": 18, "trial": 21, "rt": 992, "response": "Alpha"}, "22": {"stimulus": 17, "trial": 22, "rt": 840, "response": "Alpha"}, "23": {"stimulus": 33, "trial": 23, "rt": 811, "response": "Alpha"}, "46": {"stimulus": 68, "trial": 46, "rt": 1236, "response": "Beta"}, "47": {"stimulus": 45, "trial": 47, "rt": 905, "response": "Alpha"}, "44": {"stimulus": 35, "trial": 44, "rt": 966, "response": "Alpha"}, "45": {"stimulus": 60, "trial": 45, "rt": 3576, "response": "Alpha"}, "28": {"stimulus": 62, "trial": 28, "rt": 1004, "response": "Alpha"}, "29": {"stimulus": 25, "trial": 29, "rt": 968, "response": "Alpha"}, "40": {"stimulus": 77, "trial": 40, "rt": 1689, "response": "Beta"}, "41": {"stimulus": 1, "trial": 41, "rt": 1399, "response": "Alpha"}, "1": {"stimulus": 50, "trial": 1, "rt": 846, "response": "Beta"}, "0": {"stimulus": 13, "trial": 0, "rt": 2164, "response": "Beta"}, "3": {"stimulus": 10, "trial": 3, "rt": 1311, "response": "Alpha"}, "2": {"stimulus": 58, "trial": 2, "rt": 646, "response": "Beta"}, "5": {"stimulus": 66, "trial": 5, "rt": 838, "response": "Beta"}, "4": {"stimulus": 29, "trial": 4, "rt": 920, "response": "Alpha"}, "7": {"stimulus": 7, "trial": 7, "rt": 958, "response": "Alpha"}, "6": {"stimulus": 31, "trial": 6, "rt": 557, "response": "Beta"}, "9": {"stimulus": 6, "trial": 9, "rt": 1019, "response": "Alpha"}, "8": {"stimulus": 48, "trial": 8, "rt": 968, "response": "Beta"}, "78": {"stimulus": 79, "trial": 78, "rt": 624, "response": "Alpha"}, "51": {"stimulus": 30, "trial": 51, "rt": 770, "response": "Beta"}, "39": {"stimulus": 73, "trial": 39, "rt": 1280, "response": "Alpha"}, "65": {"stimulus": 43, "trial": 65, "rt": 7781, "response": "Alpha"}, "76": {"stimulus": 74, "trial": 76, "rt": 875, "response": "Alpha"}, "75": {"stimulus": 55, "trial": 75, "rt": 1034, "response": "Alpha"}, "38": {"stimulus": 4, "trial": 38, "rt": 1134, "response": "Beta"}, "73": {"stimulus": 9, "trial": 73, "rt": 1923, "response": "Alpha"}, "72": {"stimulus": 64, "trial": 72, "rt": 1799, "response": "Alpha"}, "71": {"stimulus": 16, "trial": 71, "rt": 821, "response": "Alpha"}, "70": {"stimulus": 75, "trial": 70, "rt": 4376, "response": "Beta"}, "59": {"stimulus": 3, "trial": 59, "rt": 815, "response": "Beta"}, "79": {"stimulus": 15, "trial": 79, "rt": 590, "response": "Alpha"}, "58": {"stimulus": 70, "trial": 58, "rt": 598, "response": "Alpha"}, "11": {"stimulus": 12, "trial": 11, "rt": 813, "response": "Beta"}, "10": {"stimulus": 69, "trial": 10, "rt": 958, "response": "Alpha"}, "13": {"stimulus": 42, "trial": 13, "rt": 4257, "response": "Alpha"}, "12": {"stimulus": 0, "trial": 12, "rt": 1167, "response": "Alpha"}, "15": {"stimulus": 38, "trial": 15, "rt": 1768, "response": "Beta"}, "14": {"stimulus": 51, "trial": 14, "rt": 888, "response": "Alpha"}, "17": {"stimulus": 72, "trial": 17, "rt": 626, "response": "Alpha"}, "16": {"stimulus": 28, "trial": 16, "rt": 34482, "response": "Alpha"}, "19": {"stimulus": 24, "trial": 19, "rt": 664, "response": "Alpha"}, "18": {"stimulus": 8, "trial": 18, "rt": 679, "response": "Alpha"}, "31": {"stimulus": 26, "trial": 31, "rt": 655, "response": "Alpha"}, "30": {"stimulus": 80, "trial": 30, "rt": 1912, "response": "Alpha"}, "37": {"stimulus": 2, "trial": 37, "rt": 3687, "response": "Alpha"}, "36": {"stimulus": 65, "trial": 36, "rt": 1392, "response": "Beta"}, "35": {"stimulus": 59, "trial": 35, "rt": 1704, "response": "Beta"}, "34": {"stimulus": 54, "trial": 34, "rt": 968, "response": "Alpha"}, "33": {"stimulus": 46, "trial": 33, "rt": 3558, "response": "Alpha"}, "55": {"stimulus": 37, "trial": 55, "rt": 1374, "response": "Alpha"}, "74": {"stimulus": 32, "trial": 74, "rt": 4079, "response": "Beta"}, "32": {"stimulus": 41, "trial": 32, "rt": 1351, "response": "Alpha"}, "57": {"stimulus": 44, "trial": 57, "rt": 559, "response": "Alpha"}, "50": {"stimulus": 49, "trial": 50, "rt": 1280, "response": "Alpha"}}, "experiment": {"Paradigm": "TACL", "Stimuli": "Size-Color Squares and Size-Orientation Circles", "Experiment": "Generating-Multiple-Categories"}, "submit": {"timeTotal": 337778, "age": "41", "comments": "", "sex": "MALE"}}