{"info": {"finish": 1554500636819, "participant": 20, "exposed": true, "lab": false, "start": 1554500403372, "counterbalance": 3, "stimtype": "Circles", "gentype": 1, "condition": "Corner_C", "browser": {"platform": "Win32", "userAgent": "Mozilla/5.0 (Windows NT 6.1; Win64; x64) AppleWebKit/537.36 (KHTML, like Gecko) Chrome/73.0.3683.86 Safari/537.36"}}, "observation": {"11": {"stimulus": 8, "trial": 11, "rt": 1414}, "10": {"stimulus": 72, "trial": 10, "rt": 1407}, "1": {"stimulus": 80, "trial": 1, "rt": 1719}, "0": {"stimulus": 72, "trial": 0, "rt": 2139}, "3": {"stimulus": 0, "trial": 3, "rt": 1686}, "2": {"stimulus": 8, "trial": 2, "rt": 1710}, "5": {"stimulus": 8, "trial": 5, "rt": 1489}, "4": {"stimulus": 72, "trial": 4, "rt": 1606}, "7": {"stimulus": 0, "trial": 7, "rt": 1482}, "6": {"stimulus": 80, "trial": 6, "rt": 1461}, "9": {"stimulus": 80, "trial": 9, "rt": 1544}, "8": {"stimulus": 0, "trial": 8, "rt": 1467}}, "generation": {"1": {"category": "Beta", "trial": 1, "stimulus": 40, "rt": 6094}, "0": {"category": "Beta", "trial": 0, "stimulus": 39, "rt": 14499}, "3": {"category": "Beta", "trial": 3, "stimulus": 31, "rt": 8486}, "2": {"category": "Beta", "trial": 2, "stimulus": 49, "rt": 5067}}, "generalization": {"56": {"stimulus": 41, "trial": 56, "rt": 706, "response": "Beta"}, "77": {"stimulus": 0, "trial": 77, "rt": 594, "response": "Alpha"}, "54": {"stimulus": 69, "trial": 54, "rt": 879, "response": "Alpha"}, "42": {"stimulus": 29, "trial": 42, "rt": 800, "response": "Beta"}, "48": {"stimulus": 63, "trial": 48, "rt": 733, "response": "Alpha"}, "43": {"stimulus": 75, "trial": 43, "rt": 667, "response": "Alpha"}, "60": {"stimulus": 80, "trial": 60, "rt": 561, "response": "Alpha"}, "61": {"stimulus": 36, "trial": 61, "rt": 868, "response": "Beta"}, "62": {"stimulus": 55, "trial": 62, "rt": 857, "response": "Alpha"}, "63": {"stimulus": 1, "trial": 63, "rt": 544, "response": "Alpha"}, "64": {"stimulus": 52, "trial": 64, "rt": 724, "response": "Alpha"}, "49": {"stimulus": 57, "trial": 49, "rt": 988, "response": "Alpha"}, "66": {"stimulus": 27, "trial": 66, "rt": 494, "response": "Beta"}, "67": {"stimulus": 64, "trial": 67, "rt": 757, "response": "Alpha"}, "68": {"stimulus": 33, "trial": 68, "rt": 842, "response": "Beta"}, "69": {"stimulus": 78, "trial": 69, "rt": 600, "response": "Alpha"}, "80": {"stimulus": 32, "trial": 80, "rt": 728, "response": "Beta"}, "52": {"stimulus": 43, "trial": 52, "rt": 823, "response": "Beta"}, "53": {"stimulus": 51, "trial": 53, "rt": 929, "response": "Beta"}, "24": {"stimulus": 71, "trial": 24, "rt": 630, "response": "Alpha"}, "25": {"stimulus": 14, "trial": 25, "rt": 874, "response": "Beta"}, "26": {"stimulus": 24, "trial": 26, "rt": 794, "response": "Beta"}, "27": {"stimulus": 65, "trial": 27, "rt": 983, "response": "Alpha"}, "20": {"stimulus": 66, "trial": 20, "rt": 773, "response": "Alpha"}, "21": {"stimulus": 46, "trial": 21, "rt": 1226, "response": "Beta"}, "22": {"stimulus": 42, "trial": 22, "rt": 852, "response": "Beta"}, "23": {"stimulus": 11, "trial": 23, "rt": 989, "response": "Beta"}, "46": {"stimulus": 0, "trial": 46, "rt": 664, "response": "Alpha"}, "47": {"stimulus": 50, "trial": 47, "rt": 688, "response": "Beta"}, "44": {"stimulus": 48, "trial": 44, "rt": 863, "response": "Beta"}, "45": {"stimulus": 8, "trial": 45, "rt": 819, "response": "Alpha"}, "28": {"stimulus": 6, "trial": 28, "rt": 624, "response": "Alpha"}, "29": {"stimulus": 25, "trial": 29, "rt": 814, "response": "Beta"}, "40": {"stimulus": 5, "trial": 40, "rt": 1255, "response": "Alpha"}, "41": {"stimulus": 62, "trial": 41, "rt": 1647, "response": "Alpha"}, "1": {"stimulus": 16, "trial": 1, "rt": 785, "response": "Beta"}, "0": {"stimulus": 79, "trial": 0, "rt": 1440, "response": "Alpha"}, "3": {"stimulus": 38, "trial": 3, "rt": 829, "response": "Beta"}, "2": {"stimulus": 31, "trial": 2, "rt": 1053, "response": "Beta"}, "5": {"stimulus": 47, "trial": 5, "rt": 1225, "response": "Beta"}, "4": {"stimulus": 40, "trial": 4, "rt": 566, "response": "Beta"}, "7": {"stimulus": 22, "trial": 7, "rt": 2328, "response": "Beta"}, "6": {"stimulus": 77, "trial": 6, "rt": 766, "response": "Alpha"}, "9": {"stimulus": 44, "trial": 9, "rt": 881, "response": "Beta"}, "8": {"stimulus": 59, "trial": 8, "rt": 864, "response": "Alpha"}, "78": {"stimulus": 10, "trial": 78, "rt": 708, "response": "Beta"}, "51": {"stimulus": 12, "trial": 51, "rt": 1137, "response": "Beta"}, "39": {"stimulus": 3, "trial": 39, "rt": 577, "response": "Alpha"}, "65": {"stimulus": 23, "trial": 65, "rt": 568, "response": "Beta"}, "76": {"stimulus": 67, "trial": 76, "rt": 790, "response": "Alpha"}, "75": {"stimulus": 49, "trial": 75, "rt": 1160, "response": "Beta"}, "38": {"stimulus": 45, "trial": 38, "rt": 1003, "response": "Beta"}, "73": {"stimulus": 20, "trial": 73, "rt": 714, "response": "Beta"}, "72": {"stimulus": 76, "trial": 72, "rt": 585, "response": "Alpha"}, "71": {"stimulus": 68, "trial": 71, "rt": 574, "response": "Alpha"}, "70": {"stimulus": 4, "trial": 70, "rt": 627, "response": "Alpha"}, "59": {"stimulus": 13, "trial": 59, "rt": 702, "response": "Beta"}, "79": {"stimulus": 21, "trial": 79, "rt": 621, "response": "Beta"}, "58": {"stimulus": 34, "trial": 58, "rt": 772, "response": "Beta"}, "11": {"stimulus": 28, "trial": 11, "rt": 1573, "response": "Beta"}, "10": {"stimulus": 15, "trial": 10, "rt": 1886, "response": "Beta"}, "13": {"stimulus": 7, "trial": 13, "rt": 775, "response": "Alpha"}, "12": {"stimulus": 18, "trial": 12, "rt": 1033, "response": "Beta"}, "15": {"stimulus": 9, "trial": 15, "rt": 807, "response": "Beta"}, "14": {"stimulus": 58, "trial": 14, "rt": 646, "response": "Alpha"}, "17": {"stimulus": 74, "trial": 17, "rt": 760, "response": "Alpha"}, "16": {"stimulus": 35, "trial": 16, "rt": 703, "response": "Beta"}, "19": {"stimulus": 56, "trial": 19, "rt": 816, "response": "Alpha"}, "18": {"stimulus": 37, "trial": 18, "rt": 805, "response": "Beta"}, "31": {"stimulus": 54, "trial": 31, "rt": 1278, "response": "Alpha"}, "30": {"stimulus": 26, "trial": 30, "rt": 692, "response": "Beta"}, "37": {"stimulus": 30, "trial": 37, "rt": 676, "response": "Beta"}, "36": {"stimulus": 17, "trial": 36, "rt": 608, "response": "Beta"}, "35": {"stimulus": 19, "trial": 35, "rt": 1069, "response": "Beta"}, "34": {"stimulus": 73, "trial": 34, "rt": 497, "response": "Alpha"}, "33": {"stimulus": 2, "trial": 33, "rt": 2140, "response": "Alpha"}, "55": {"stimulus": 60, "trial": 55, "rt": 573, "response": "Alpha"}, "74": {"stimulus": 61, "trial": 74, "rt": 678, "response": "Alpha"}, "32": {"stimulus": 72, "trial": 32, "rt": 546, "response": "Alpha"}, "57": {"stimulus": 70, "trial": 57, "rt": 801, "response": "Alpha"}, "50": {"stimulus": 53, "trial": 50, "rt": 786, "response": "Beta"}}, "experiment": {"Paradigm": "TACL", "Stimuli": "Size-Color Squares and Size-Orientation Circles", "Experiment": "Generating-Multiple-Categories"}, "submit": {"timeTotal": 233692, "age": "45", "comments": "Thanks", "sex": "Male"}}