{"info": {"finish": 1554500873295, "participant": 21, "exposed": true, "lab": false, "start": 1554500484935, "counterbalance": 1, "stimtype": "Circles", "gentype": 1, "condition": "Corner_C", "browser": {"platform": "Win32", "userAgent": "Mozilla/5.0 (Windows NT 10.0; Win64; x64) AppleWebKit/537.36 (KHTML, like Gecko) Chrome/73.0.3683.86 Safari/537.36"}}, "observation": {"11": {"stimulus": 80, "trial": 11, "rt": 1494}, "10": {"stimulus": 8, "trial": 10, "rt": 1440}, "1": {"stimulus": 0, "trial": 1, "rt": 2621}, "0": {"stimulus": 80, "trial": 0, "rt": 6864}, "3": {"stimulus": 8, "trial": 3, "rt": 1600}, "2": {"stimulus": 72, "trial": 2, "rt": 2066}, "5": {"stimulus": 72, "trial": 5, "rt": 2533}, "4": {"stimulus": 8, "trial": 4, "rt": 2660}, "7": {"stimulus": 0, "trial": 7, "rt": 4148}, "6": {"stimulus": 80, "trial": 6, "rt": 1679}, "9": {"stimulus": 72, "trial": 9, "rt": 2223}, "8": {"stimulus": 0, "trial": 8, "rt": 2306}}, "generation": {"1": {"category": "Beta", "trial": 1, "stimulus": 31, "rt": 11345}, "0": {"category": "Beta", "trial": 0, "stimulus": 30, "rt": 33339}, "3": {"category": "Beta", "trial": 3, "stimulus": 37, "rt": 17752}, "2": {"category": "Beta", "trial": 2, "stimulus": 38, "rt": 9349}}, "generalization": {"56": {"stimulus": 33, "trial": 56, "rt": 589, "response": "Beta"}, "77": {"stimulus": 59, "trial": 77, "rt": 673, "response": "Alpha"}, "54": {"stimulus": 42, "trial": 54, "rt": 969, "response": "Beta"}, "42": {"stimulus": 21, "trial": 42, "rt": 785, "response": "Beta"}, "48": {"stimulus": 51, "trial": 48, "rt": 1009, "response": "Beta"}, "43": {"stimulus": 24, "trial": 43, "rt": 693, "response": "Beta"}, "60": {"stimulus": 73, "trial": 60, "rt": 686, "response": "Alpha"}, "61": {"stimulus": 58, "trial": 61, "rt": 792, "response": "Alpha"}, "62": {"stimulus": 44, "trial": 62, "rt": 1423, "response": "Beta"}, "63": {"stimulus": 17, "trial": 63, "rt": 633, "response": "Beta"}, "64": {"stimulus": 2, "trial": 64, "rt": 959, "response": "Alpha"}, "49": {"stimulus": 14, "trial": 49, "rt": 880, "response": "Beta"}, "66": {"stimulus": 40, "trial": 66, "rt": 960, "response": "Beta"}, "67": {"stimulus": 75, "trial": 67, "rt": 1497, "response": "Alpha"}, "68": {"stimulus": 41, "trial": 68, "rt": 1024, "response": "Beta"}, "69": {"stimulus": 70, "trial": 69, "rt": 1168, "response": "Alpha"}, "80": {"stimulus": 29, "trial": 80, "rt": 687, "response": "Beta"}, "52": {"stimulus": 79, "trial": 52, "rt": 1288, "response": "Alpha"}, "53": {"stimulus": 65, "trial": 53, "rt": 641, "response": "Alpha"}, "24": {"stimulus": 8, "trial": 24, "rt": 1072, "response": "Alpha"}, "25": {"stimulus": 30, "trial": 25, "rt": 949, "response": "Beta"}, "26": {"stimulus": 67, "trial": 26, "rt": 1119, "response": "Alpha"}, "27": {"stimulus": 56, "trial": 27, "rt": 943, "response": "Alpha"}, "20": {"stimulus": 46, "trial": 20, "rt": 1159, "response": "Alpha"}, "21": {"stimulus": 12, "trial": 21, "rt": 1117, "response": "Beta"}, "22": {"stimulus": 28, "trial": 22, "rt": 1480, "response": "Beta"}, "23": {"stimulus": 49, "trial": 23, "rt": 1714, "response": "Beta"}, "46": {"stimulus": 31, "trial": 46, "rt": 633, "response": "Beta"}, "47": {"stimulus": 25, "trial": 47, "rt": 694, "response": "Beta"}, "44": {"stimulus": 48, "trial": 44, "rt": 1025, "response": "Beta"}, "45": {"stimulus": 36, "trial": 45, "rt": 749, "response": "Beta"}, "28": {"stimulus": 78, "trial": 28, "rt": 935, "response": "Alpha"}, "29": {"stimulus": 66, "trial": 29, "rt": 856, "response": "Alpha"}, "40": {"stimulus": 10, "trial": 40, "rt": 1321, "response": "Beta"}, "41": {"stimulus": 26, "trial": 41, "rt": 1497, "response": "Beta"}, "1": {"stimulus": 38, "trial": 1, "rt": 3619, "response": "Beta"}, "0": {"stimulus": 37, "trial": 0, "rt": 4783, "response": "Beta"}, "3": {"stimulus": 20, "trial": 3, "rt": 3316, "response": "Beta"}, "2": {"stimulus": 45, "trial": 2, "rt": 1218, "response": "Beta"}, "5": {"stimulus": 5, "trial": 5, "rt": 817, "response": "Alpha"}, "4": {"stimulus": 54, "trial": 4, "rt": 1399, "response": "Alpha"}, "7": {"stimulus": 55, "trial": 7, "rt": 705, "response": "Alpha"}, "6": {"stimulus": 6, "trial": 6, "rt": 671, "response": "Alpha"}, "9": {"stimulus": 35, "trial": 9, "rt": 912, "response": "Beta"}, "8": {"stimulus": 0, "trial": 8, "rt": 664, "response": "Alpha"}, "78": {"stimulus": 15, "trial": 78, "rt": 1041, "response": "Beta"}, "51": {"stimulus": 34, "trial": 51, "rt": 647, "response": "Beta"}, "39": {"stimulus": 62, "trial": 39, "rt": 762, "response": "Alpha"}, "65": {"stimulus": 16, "trial": 65, "rt": 1008, "response": "Beta"}, "76": {"stimulus": 74, "trial": 76, "rt": 599, "response": "Alpha"}, "75": {"stimulus": 80, "trial": 75, "rt": 800, "response": "Alpha"}, "38": {"stimulus": 68, "trial": 38, "rt": 728, "response": "Alpha"}, "73": {"stimulus": 13, "trial": 73, "rt": 896, "response": "Beta"}, "72": {"stimulus": 69, "trial": 72, "rt": 1823, "response": "Alpha"}, "71": {"stimulus": 72, "trial": 71, "rt": 1184, "response": "Alpha"}, "70": {"stimulus": 23, "trial": 70, "rt": 919, "response": "Beta"}, "59": {"stimulus": 1, "trial": 59, "rt": 1137, "response": "Alpha"}, "79": {"stimulus": 9, "trial": 79, "rt": 663, "response": "Beta"}, "58": {"stimulus": 43, "trial": 58, "rt": 961, "response": "Beta"}, "11": {"stimulus": 27, "trial": 11, "rt": 743, "response": "Beta"}, "10": {"stimulus": 76, "trial": 10, "rt": 1054, "response": "Alpha"}, "13": {"stimulus": 4, "trial": 13, "rt": 910, "response": "Alpha"}, "12": {"stimulus": 18, "trial": 12, "rt": 655, "response": "Beta"}, "15": {"stimulus": 57, "trial": 15, "rt": 705, "response": "Alpha"}, "14": {"stimulus": 77, "trial": 14, "rt": 689, "response": "Alpha"}, "17": {"stimulus": 3, "trial": 17, "rt": 632, "response": "Alpha"}, "16": {"stimulus": 63, "trial": 16, "rt": 517, "response": "Alpha"}, "19": {"stimulus": 64, "trial": 19, "rt": 958, "response": "Alpha"}, "18": {"stimulus": 19, "trial": 18, "rt": 1104, "response": "Beta"}, "31": {"stimulus": 32, "trial": 31, "rt": 1091, "response": "Beta"}, "30": {"stimulus": 22, "trial": 30, "rt": 1361, "response": "Beta"}, "37": {"stimulus": 61, "trial": 37, "rt": 2001, "response": "Alpha"}, "36": {"stimulus": 52, "trial": 36, "rt": 1608, "response": "Beta"}, "35": {"stimulus": 7, "trial": 35, "rt": 720, "response": "Alpha"}, "34": {"stimulus": 71, "trial": 34, "rt": 808, "response": "Alpha"}, "33": {"stimulus": 50, "trial": 33, "rt": 647, "response": "Alpha"}, "55": {"stimulus": 47, "trial": 55, "rt": 727, "response": "Beta"}, "74": {"stimulus": 53, "trial": 74, "rt": 637, "response": "Beta"}, "32": {"stimulus": 60, "trial": 32, "rt": 991, "response": "Alpha"}, "57": {"stimulus": 0, "trial": 57, "rt": 1471, "response": "Alpha"}, "50": {"stimulus": 11, "trial": 50, "rt": 753, "response": "Beta"}}, "experiment": {"Paradigm": "TACL", "Stimuli": "Size-Color Squares and Size-Orientation Circles", "Experiment": "Generating-Multiple-Categories"}, "submit": {"timeTotal": 388567, "age": "52", "comments": "I like it so far.", "sex": "Female"}}