{"info": {"finish": 1554500959131, "participant": 22, "exposed": true, "lab": false, "start": 1554500574295, "counterbalance": 7, "stimtype": "Circles", "gentype": 1, "condition": "Corner_C", "browser": {"platform": "Win32", "userAgent": "Mozilla/5.0 (Windows NT 10.0; Win64; x64) AppleWebKit/537.36 (KHTML, like Gecko) Chrome/73.0.3683.86 Safari/537.36"}}, "observation": {"11": {"stimulus": 0, "trial": 11, "rt": 1395}, "10": {"stimulus": 72, "trial": 10, "rt": 1573}, "1": {"stimulus": 72, "trial": 1, "rt": 2259}, "0": {"stimulus": 80, "trial": 0, "rt": 5590}, "3": {"stimulus": 8, "trial": 3, "rt": 1638}, "2": {"stimulus": 0, "trial": 2, "rt": 1868}, "5": {"stimulus": 0, "trial": 5, "rt": 1741}, "4": {"stimulus": 72, "trial": 4, "rt": 1748}, "7": {"stimulus": 8, "trial": 7, "rt": 5142}, "6": {"stimulus": 80, "trial": 6, "rt": 1580}, "9": {"stimulus": 80, "trial": 9, "rt": 1718}, "8": {"stimulus": 8, "trial": 8, "rt": 2932}}, "generation": {"1": {"category": "Beta", "trial": 1, "stimulus": 75, "rt": 13063}, "0": {"category": "Beta", "trial": 0, "stimulus": 49, "rt": 21990}, "3": {"category": "Beta", "trial": 3, "stimulus": 4, "rt": 20391}, "2": {"category": "Beta", "trial": 2, "stimulus": 58, "rt": 8558}}, "generalization": {"56": {"stimulus": 76, "trial": 56, "rt": 1011, "response": "Beta"}, "77": {"stimulus": 20, "trial": 77, "rt": 2389, "response": "Alpha"}, "54": {"stimulus": 77, "trial": 54, "rt": 797, "response": "Beta"}, "42": {"stimulus": 72, "trial": 42, "rt": 1422, "response": "Alpha"}, "48": {"stimulus": 2, "trial": 48, "rt": 972, "response": "Alpha"}, "43": {"stimulus": 18, "trial": 43, "rt": 803, "response": "Alpha"}, "60": {"stimulus": 11, "trial": 60, "rt": 1061, "response": "Alpha"}, "61": {"stimulus": 3, "trial": 61, "rt": 1124, "response": "Beta"}, "62": {"stimulus": 57, "trial": 62, "rt": 2966, "response": "Beta"}, "63": {"stimulus": 21, "trial": 63, "rt": 1340, "response": "Beta"}, "64": {"stimulus": 14, "trial": 64, "rt": 914, "response": "Beta"}, "49": {"stimulus": 60, "trial": 49, "rt": 2291, "response": "Beta"}, "66": {"stimulus": 58, "trial": 66, "rt": 725, "response": "Beta"}, "67": {"stimulus": 49, "trial": 67, "rt": 2044, "response": "Beta"}, "68": {"stimulus": 13, "trial": 68, "rt": 675, "response": "Beta"}, "69": {"stimulus": 65, "trial": 69, "rt": 2973, "response": "Alpha"}, "80": {"stimulus": 27, "trial": 80, "rt": 997, "response": "Alpha"}, "52": {"stimulus": 62, "trial": 52, "rt": 1293, "response": "Alpha"}, "53": {"stimulus": 40, "trial": 53, "rt": 852, "response": "Beta"}, "24": {"stimulus": 36, "trial": 24, "rt": 1012, "response": "Alpha"}, "25": {"stimulus": 66, "trial": 25, "rt": 1608, "response": "Beta"}, "26": {"stimulus": 34, "trial": 26, "rt": 1013, "response": "Alpha"}, "27": {"stimulus": 30, "trial": 27, "rt": 834, "response": "Beta"}, "20": {"stimulus": 37, "trial": 20, "rt": 870, "response": "Beta"}, "21": {"stimulus": 9, "trial": 21, "rt": 990, "response": "Alpha"}, "22": {"stimulus": 53, "trial": 22, "rt": 1069, "response": "Alpha"}, "23": {"stimulus": 70, "trial": 23, "rt": 2349, "response": "Alpha"}, "46": {"stimulus": 26, "trial": 46, "rt": 1268, "response": "Alpha"}, "47": {"stimulus": 80, "trial": 47, "rt": 1036, "response": "Alpha"}, "44": {"stimulus": 68, "trial": 44, "rt": 1067, "response": "Beta"}, "45": {"stimulus": 17, "trial": 45, "rt": 980, "response": "Alpha"}, "28": {"stimulus": 19, "trial": 28, "rt": 948, "response": "Beta"}, "29": {"stimulus": 75, "trial": 29, "rt": 997, "response": "Beta"}, "40": {"stimulus": 28, "trial": 40, "rt": 6620, "response": "Alpha"}, "41": {"stimulus": 47, "trial": 41, "rt": 1138, "response": "Alpha"}, "1": {"stimulus": 69, "trial": 1, "rt": 18189, "response": "Alpha"}, "0": {"stimulus": 55, "trial": 0, "rt": 2939, "response": "Beta"}, "3": {"stimulus": 33, "trial": 3, "rt": 1022, "response": "Alpha"}, "2": {"stimulus": 12, "trial": 2, "rt": 4381, "response": "Beta"}, "5": {"stimulus": 5, "trial": 5, "rt": 1959, "response": "Alpha"}, "4": {"stimulus": 51, "trial": 4, "rt": 1067, "response": "Alpha"}, "7": {"stimulus": 74, "trial": 7, "rt": 869, "response": "Beta"}, "6": {"stimulus": 56, "trial": 6, "rt": 1149, "response": "Beta"}, "9": {"stimulus": 45, "trial": 9, "rt": 916, "response": "Alpha"}, "8": {"stimulus": 52, "trial": 8, "rt": 1845, "response": "Alpha"}, "78": {"stimulus": 43, "trial": 78, "rt": 1277, "response": "Beta"}, "51": {"stimulus": 10, "trial": 51, "rt": 1939, "response": "Alpha"}, "39": {"stimulus": 22, "trial": 39, "rt": 1281, "response": "Beta"}, "65": {"stimulus": 79, "trial": 65, "rt": 1708, "response": "Beta"}, "76": {"stimulus": 31, "trial": 76, "rt": 1428, "response": "Beta"}, "75": {"stimulus": 54, "trial": 75, "rt": 1733, "response": "Alpha"}, "38": {"stimulus": 35, "trial": 38, "rt": 799, "response": "Alpha"}, "73": {"stimulus": 24, "trial": 73, "rt": 1116, "response": "Beta"}, "72": {"stimulus": 44, "trial": 72, "rt": 3218, "response": "Alpha"}, "71": {"stimulus": 46, "trial": 71, "rt": 1030, "response": "Beta"}, "70": {"stimulus": 1, "trial": 70, "rt": 1157, "response": "Beta"}, "59": {"stimulus": 25, "trial": 59, "rt": 2237, "response": "Beta"}, "79": {"stimulus": 59, "trial": 79, "rt": 2036, "response": "Beta"}, "58": {"stimulus": 32, "trial": 58, "rt": 1147, "response": "Beta"}, "11": {"stimulus": 15, "trial": 11, "rt": 1006, "response": "Alpha"}, "10": {"stimulus": 16, "trial": 10, "rt": 1228, "response": "Alpha"}, "13": {"stimulus": 6, "trial": 13, "rt": 662, "response": "Alpha"}, "12": {"stimulus": 71, "trial": 12, "rt": 883, "response": "Alpha"}, "15": {"stimulus": 29, "trial": 15, "rt": 3109, "response": "Beta"}, "14": {"stimulus": 4, "trial": 14, "rt": 1044, "response": "Beta"}, "17": {"stimulus": 78, "trial": 17, "rt": 2006, "response": "Alpha"}, "16": {"stimulus": 73, "trial": 16, "rt": 981, "response": "Beta"}, "19": {"stimulus": 0, "trial": 19, "rt": 845, "response": "Alpha"}, "18": {"stimulus": 48, "trial": 18, "rt": 1661, "response": "Beta"}, "31": {"stimulus": 23, "trial": 31, "rt": 13269, "response": "Alpha"}, "30": {"stimulus": 0, "trial": 30, "rt": 989, "response": "Alpha"}, "37": {"stimulus": 63, "trial": 37, "rt": 2940, "response": "Alpha"}, "36": {"stimulus": 42, "trial": 36, "rt": 4213, "response": "Alpha"}, "35": {"stimulus": 50, "trial": 35, "rt": 6596, "response": "Alpha"}, "34": {"stimulus": 38, "trial": 34, "rt": 1653, "response": "Beta"}, "33": {"stimulus": 41, "trial": 33, "rt": 810, "response": "Alpha"}, "55": {"stimulus": 64, "trial": 55, "rt": 1335, "response": "Alpha"}, "74": {"stimulus": 61, "trial": 74, "rt": 1284, "response": "Beta"}, "32": {"stimulus": 67, "trial": 32, "rt": 1060, "response": "Beta"}, "57": {"stimulus": 8, "trial": 57, "rt": 1021, "response": "Alpha"}, "50": {"stimulus": 7, "trial": 50, "rt": 1613, "response": "Beta"}}, "experiment": {"Paradigm": "TACL", "Stimuli": "Size-Color Squares and Size-Orientation Circles", "Experiment": "Generating-Multiple-Categories"}, "submit": {"timeTotal": 385035, "age": "40", "comments": "", "sex": "male"}}