{"info": {"finish": 1554501535402, "participant": 24, "exposed": true, "lab": false, "start": 1554501235108, "counterbalance": 0, "stimtype": "Squares", "gentype": 1, "condition": "Corner_S", "browser": {"platform": "Linux x86_64", "userAgent": "Mozilla/5.0 (X11; Linux x86_64) AppleWebKit/537.36 (KHTML, like Gecko) Chrome/68.0.3440.106 Safari/537.36"}}, "observation": {"11": {"stimulus": 72, "trial": 11, "rt": 1502}, "10": {"stimulus": 0, "trial": 10, "rt": 1439}, "1": {"stimulus": 0, "trial": 1, "rt": 2247}, "0": {"stimulus": 80, "trial": 0, "rt": 4220}, "3": {"stimulus": 8, "trial": 3, "rt": 1832}, "2": {"stimulus": 72, "trial": 2, "rt": 1661}, "5": {"stimulus": 0, "trial": 5, "rt": 1439}, "4": {"stimulus": 8, "trial": 4, "rt": 1535}, "7": {"stimulus": 72, "trial": 7, "rt": 1455}, "6": {"stimulus": 80, "trial": 6, "rt": 1512}, "9": {"stimulus": 80, "trial": 9, "rt": 1400}, "8": {"stimulus": 8, "trial": 8, "rt": 1486}}, "generation": {"1": {"category": "Beta", "trial": 1, "stimulus": 54, "rt": 7574}, "0": {"category": "Beta", "trial": 0, "stimulus": 38, "rt": 21511}, "3": {"category": "Beta", "trial": 3, "stimulus": 30, "rt": 6200}, "2": {"category": "Beta", "trial": 2, "stimulus": 44, "rt": 5814}}, "generalization": {"56": {"stimulus": 24, "trial": 56, "rt": 991, "response": "Alpha"}, "77": {"stimulus": 42, "trial": 77, "rt": 903, "response": "Beta"}, "54": {"stimulus": 67, "trial": 54, "rt": 872, "response": "Beta"}, "42": {"stimulus": 40, "trial": 42, "rt": 711, "response": "Beta"}, "48": {"stimulus": 2, "trial": 48, "rt": 959, "response": "Alpha"}, "43": {"stimulus": 28, "trial": 43, "rt": 566, "response": "Beta"}, "60": {"stimulus": 38, "trial": 60, "rt": 1024, "response": "Beta"}, "61": {"stimulus": 18, "trial": 61, "rt": 2382, "response": "Beta"}, "62": {"stimulus": 58, "trial": 62, "rt": 768, "response": "Beta"}, "63": {"stimulus": 23, "trial": 63, "rt": 2327, "response": "Beta"}, "64": {"stimulus": 65, "trial": 64, "rt": 1169, "response": "Beta"}, "49": {"stimulus": 77, "trial": 49, "rt": 2471, "response": "Alpha"}, "66": {"stimulus": 44, "trial": 66, "rt": 856, "response": "Beta"}, "67": {"stimulus": 14, "trial": 67, "rt": 936, "response": "Alpha"}, "68": {"stimulus": 13, "trial": 68, "rt": 721, "response": "Alpha"}, "69": {"stimulus": 33, "trial": 69, "rt": 892, "response": "Beta"}, "80": {"stimulus": 26, "trial": 80, "rt": 1205, "response": "Beta"}, "52": {"stimulus": 30, "trial": 52, "rt": 1058, "response": "Beta"}, "53": {"stimulus": 71, "trial": 53, "rt": 957, "response": "Beta"}, "24": {"stimulus": 75, "trial": 24, "rt": 710, "response": "Beta"}, "25": {"stimulus": 1, "trial": 25, "rt": 1295, "response": "Alpha"}, "26": {"stimulus": 66, "trial": 26, "rt": 886, "response": "Beta"}, "27": {"stimulus": 41, "trial": 27, "rt": 742, "response": "Beta"}, "20": {"stimulus": 56, "trial": 20, "rt": 2012, "response": "Beta"}, "21": {"stimulus": 16, "trial": 21, "rt": 1158, "response": "Alpha"}, "22": {"stimulus": 9, "trial": 22, "rt": 623, "response": "Alpha"}, "23": {"stimulus": 63, "trial": 23, "rt": 872, "response": "Beta"}, "46": {"stimulus": 0, "trial": 46, "rt": 672, "response": "Alpha"}, "47": {"stimulus": 32, "trial": 47, "rt": 1494, "response": "Beta"}, "44": {"stimulus": 69, "trial": 44, "rt": 751, "response": "Beta"}, "45": {"stimulus": 15, "trial": 45, "rt": 1095, "response": "Alpha"}, "28": {"stimulus": 43, "trial": 28, "rt": 15519, "response": "Beta"}, "29": {"stimulus": 74, "trial": 29, "rt": 511, "response": "Beta"}, "40": {"stimulus": 72, "trial": 40, "rt": 1023, "response": "Alpha"}, "41": {"stimulus": 62, "trial": 41, "rt": 983, "response": "Beta"}, "1": {"stimulus": 79, "trial": 1, "rt": 785, "response": "Alpha"}, "0": {"stimulus": 35, "trial": 0, "rt": 1587, "response": "Beta"}, "3": {"stimulus": 53, "trial": 3, "rt": 1126, "response": "Beta"}, "2": {"stimulus": 27, "trial": 2, "rt": 1126, "response": "Beta"}, "5": {"stimulus": 59, "trial": 5, "rt": 879, "response": "Beta"}, "4": {"stimulus": 50, "trial": 4, "rt": 886, "response": "Beta"}, "7": {"stimulus": 60, "trial": 7, "rt": 1582, "response": "Beta"}, "6": {"stimulus": 22, "trial": 6, "rt": 1703, "response": "Beta"}, "9": {"stimulus": 70, "trial": 9, "rt": 918, "response": "Beta"}, "8": {"stimulus": 29, "trial": 8, "rt": 855, "response": "Beta"}, "78": {"stimulus": 8, "trial": 78, "rt": 862, "response": "Alpha"}, "51": {"stimulus": 4, "trial": 51, "rt": 1079, "response": "Alpha"}, "39": {"stimulus": 47, "trial": 39, "rt": 1008, "response": "Beta"}, "65": {"stimulus": 19, "trial": 65, "rt": 1621, "response": "Beta"}, "76": {"stimulus": 46, "trial": 76, "rt": 1103, "response": "Beta"}, "75": {"stimulus": 7, "trial": 75, "rt": 862, "response": "Alpha"}, "38": {"stimulus": 73, "trial": 38, "rt": 1110, "response": "Alpha"}, "73": {"stimulus": 31, "trial": 73, "rt": 1063, "response": "Beta"}, "72": {"stimulus": 6, "trial": 72, "rt": 1134, "response": "Alpha"}, "71": {"stimulus": 54, "trial": 71, "rt": 768, "response": "Beta"}, "70": {"stimulus": 20, "trial": 70, "rt": 703, "response": "Beta"}, "59": {"stimulus": 5, "trial": 59, "rt": 560, "response": "Alpha"}, "79": {"stimulus": 55, "trial": 79, "rt": 1186, "response": "Beta"}, "58": {"stimulus": 76, "trial": 58, "rt": 1198, "response": "Alpha"}, "11": {"stimulus": 61, "trial": 11, "rt": 624, "response": "Beta"}, "10": {"stimulus": 68, "trial": 10, "rt": 510, "response": "Beta"}, "13": {"stimulus": 17, "trial": 13, "rt": 601, "response": "Alpha"}, "12": {"stimulus": 10, "trial": 12, "rt": 806, "response": "Alpha"}, "15": {"stimulus": 34, "trial": 15, "rt": 973, "response": "Beta"}, "14": {"stimulus": 78, "trial": 14, "rt": 1216, "response": "Alpha"}, "17": {"stimulus": 64, "trial": 17, "rt": 1119, "response": "Beta"}, "16": {"stimulus": 25, "trial": 16, "rt": 929, "response": "Alpha"}, "19": {"stimulus": 36, "trial": 19, "rt": 1529, "response": "Beta"}, "18": {"stimulus": 3, "trial": 18, "rt": 958, "response": "Alpha"}, "31": {"stimulus": 0, "trial": 31, "rt": 1007, "response": "Alpha"}, "30": {"stimulus": 21, "trial": 30, "rt": 839, "response": "Beta"}, "37": {"stimulus": 57, "trial": 37, "rt": 808, "response": "Beta"}, "36": {"stimulus": 12, "trial": 36, "rt": 1087, "response": "Alpha"}, "35": {"stimulus": 51, "trial": 35, "rt": 1032, "response": "Beta"}, "34": {"stimulus": 11, "trial": 34, "rt": 1095, "response": "Alpha"}, "33": {"stimulus": 45, "trial": 33, "rt": 1019, "response": "Beta"}, "55": {"stimulus": 37, "trial": 55, "rt": 1877, "response": "Beta"}, "74": {"stimulus": 49, "trial": 74, "rt": 943, "response": "Beta"}, "32": {"stimulus": 80, "trial": 32, "rt": 1210, "response": "Alpha"}, "57": {"stimulus": 52, "trial": 57, "rt": 863, "response": "Beta"}, "50": {"stimulus": 48, "trial": 50, "rt": 838, "response": "Beta"}}, "experiment": {"Paradigm": "TACL", "Stimuli": "Size-Color Squares and Size-Orientation Circles", "Experiment": "Generating-Multiple-Categories"}, "submit": {"timeTotal": 300677, "age": "33", "comments": "", "sex": "Male"}}