{"info": {"finish": 1554502618016, "participant": 25, "exposed": true, "lab": false, "start": 1554501317019, "counterbalance": 3, "stimtype": "Squares", "gentype": 1, "condition": "Corner_S", "browser": {"platform": "Win32", "userAgent": "Mozilla/5.0 (Windows NT 10.0; Win64; x64) AppleWebKit/537.36 (KHTML, like Gecko) Chrome/73.0.3683.86 Safari/537.36"}}, "observation": {"11": {"stimulus": 8, "trial": 11, "rt": 4837}, "10": {"stimulus": 0, "trial": 10, "rt": 31239}, "1": {"stimulus": 0, "trial": 1, "rt": 1530}, "0": {"stimulus": 8, "trial": 0, "rt": 27589}, "3": {"stimulus": 80, "trial": 3, "rt": 1863}, "2": {"stimulus": 72, "trial": 2, "rt": 2222}, "5": {"stimulus": 80, "trial": 5, "rt": 1357}, "4": {"stimulus": 72, "trial": 4, "rt": 1428}, "7": {"stimulus": 0, "trial": 7, "rt": 1610}, "6": {"stimulus": 8, "trial": 6, "rt": 1354}, "9": {"stimulus": 72, "trial": 9, "rt": 2086}, "8": {"stimulus": 80, "trial": 8, "rt": 1374}}, "generation": {"1": {"category": "Beta", "trial": 1, "stimulus": 38, "rt": 6511}, "0": {"category": "Beta", "trial": 0, "stimulus": 42, "rt": 10871}, "3": {"category": "Beta", "trial": 3, "stimulus": 58, "rt": 51608}, "2": {"category": "Beta", "trial": 2, "stimulus": 32, "rt": 7585}}, "generalization": {"56": {"stimulus": 3, "trial": 56, "rt": 806, "response": "Alpha"}, "77": {"stimulus": 52, "trial": 77, "rt": 1130, "response": "Beta"}, "54": {"stimulus": 36, "trial": 54, "rt": 1138, "response": "Beta"}, "42": {"stimulus": 26, "trial": 42, "rt": 1417, "response": "Beta"}, "48": {"stimulus": 11, "trial": 48, "rt": 1209, "response": "Beta"}, "43": {"stimulus": 1, "trial": 43, "rt": 1530, "response": "Alpha"}, "60": {"stimulus": 74, "trial": 60, "rt": 619, "response": "Alpha"}, "61": {"stimulus": 55, "trial": 61, "rt": 4417, "response": "Beta"}, "62": {"stimulus": 22, "trial": 62, "rt": 1400, "response": "Beta"}, "63": {"stimulus": 80, "trial": 63, "rt": 905, "response": "Alpha"}, "64": {"stimulus": 29, "trial": 64, "rt": 985, "response": "Beta"}, "49": {"stimulus": 64, "trial": 49, "rt": 735, "response": "Alpha"}, "66": {"stimulus": 76, "trial": 66, "rt": 984, "response": "Alpha"}, "67": {"stimulus": 47, "trial": 67, "rt": 1956, "response": "Beta"}, "68": {"stimulus": 38, "trial": 68, "rt": 603, "response": "Beta"}, "69": {"stimulus": 33, "trial": 69, "rt": 539, "response": "Beta"}, "80": {"stimulus": 68, "trial": 80, "rt": 2462, "response": "Alpha"}, "52": {"stimulus": 44, "trial": 52, "rt": 1034, "response": "Beta"}, "53": {"stimulus": 35, "trial": 53, "rt": 1538, "response": "Beta"}, "24": {"stimulus": 12, "trial": 24, "rt": 1089, "response": "Beta"}, "25": {"stimulus": 43, "trial": 25, "rt": 1162, "response": "Beta"}, "26": {"stimulus": 0, "trial": 26, "rt": 1218, "response": "Alpha"}, "27": {"stimulus": 79, "trial": 27, "rt": 658, "response": "Alpha"}, "20": {"stimulus": 71, "trial": 20, "rt": 1291, "response": "Alpha"}, "21": {"stimulus": 54, "trial": 21, "rt": 2030, "response": "Beta"}, "22": {"stimulus": 4, "trial": 22, "rt": 937, "response": "Alpha"}, "23": {"stimulus": 21, "trial": 23, "rt": 7290, "response": "Beta"}, "46": {"stimulus": 15, "trial": 46, "rt": 1114, "response": "Alpha"}, "47": {"stimulus": 27, "trial": 47, "rt": 1502, "response": "Beta"}, "44": {"stimulus": 20, "trial": 44, "rt": 1067, "response": "Beta"}, "45": {"stimulus": 30, "trial": 45, "rt": 1887, "response": "Beta"}, "28": {"stimulus": 40, "trial": 28, "rt": 947, "response": "Beta"}, "29": {"stimulus": 45, "trial": 29, "rt": 1649, "response": "Beta"}, "40": {"stimulus": 51, "trial": 40, "rt": 1024, "response": "Beta"}, "41": {"stimulus": 62, "trial": 41, "rt": 1370, "response": "Alpha"}, "1": {"stimulus": 78, "trial": 1, "rt": 1080, "response": "Alpha"}, "0": {"stimulus": 28, "trial": 0, "rt": 1882, "response": "Beta"}, "3": {"stimulus": 5, "trial": 3, "rt": 1491, "response": "Alpha"}, "2": {"stimulus": 31, "trial": 2, "rt": 1712, "response": "Beta"}, "5": {"stimulus": 37, "trial": 5, "rt": 729, "response": "Beta"}, "4": {"stimulus": 32, "trial": 4, "rt": 1305, "response": "Beta"}, "7": {"stimulus": 70, "trial": 7, "rt": 1571, "response": "Alpha"}, "6": {"stimulus": 48, "trial": 6, "rt": 770, "response": "Beta"}, "9": {"stimulus": 24, "trial": 9, "rt": 626, "response": "Beta"}, "8": {"stimulus": 16, "trial": 8, "rt": 1836, "response": "Beta"}, "78": {"stimulus": 10, "trial": 78, "rt": 1264, "response": "Beta"}, "51": {"stimulus": 61, "trial": 51, "rt": 619, "response": "Alpha"}, "39": {"stimulus": 23, "trial": 39, "rt": 1153, "response": "Beta"}, "65": {"stimulus": 18, "trial": 65, "rt": 977, "response": "Beta"}, "76": {"stimulus": 69, "trial": 76, "rt": 1244, "response": "Alpha"}, "75": {"stimulus": 41, "trial": 75, "rt": 1113, "response": "Beta"}, "38": {"stimulus": 7, "trial": 38, "rt": 1324, "response": "Alpha"}, "73": {"stimulus": 66, "trial": 73, "rt": 961, "response": "Alpha"}, "72": {"stimulus": 19, "trial": 72, "rt": 1001, "response": "Beta"}, "71": {"stimulus": 57, "trial": 71, "rt": 491, "response": "Beta"}, "70": {"stimulus": 58, "trial": 70, "rt": 824, "response": "Beta"}, "59": {"stimulus": 67, "trial": 59, "rt": 770, "response": "Alpha"}, "79": {"stimulus": 53, "trial": 79, "rt": 810, "response": "Beta"}, "58": {"stimulus": 25, "trial": 58, "rt": 9323, "response": "Beta"}, "11": {"stimulus": 65, "trial": 11, "rt": 582, "response": "Alpha"}, "10": {"stimulus": 77, "trial": 10, "rt": 1097, "response": "Alpha"}, "13": {"stimulus": 49, "trial": 13, "rt": 1959, "response": "Beta"}, "12": {"stimulus": 75, "trial": 12, "rt": 674, "response": "Alpha"}, "15": {"stimulus": 13, "trial": 15, "rt": 1666, "response": "Alpha"}, "14": {"stimulus": 17, "trial": 14, "rt": 1002, "response": "Alpha"}, "17": {"stimulus": 73, "trial": 17, "rt": 634, "response": "Alpha"}, "16": {"stimulus": 6, "trial": 16, "rt": 761, "response": "Alpha"}, "19": {"stimulus": 50, "trial": 19, "rt": 1147, "response": "Beta"}, "18": {"stimulus": 59, "trial": 18, "rt": 1114, "response": "Beta"}, "31": {"stimulus": 63, "trial": 31, "rt": 714, "response": "Alpha"}, "30": {"stimulus": 9, "trial": 30, "rt": 954, "response": "Alpha"}, "37": {"stimulus": 56, "trial": 37, "rt": 2096, "response": "Beta"}, "36": {"stimulus": 8, "trial": 36, "rt": 1034, "response": "Alpha"}, "35": {"stimulus": 42, "trial": 35, "rt": 1774, "response": "Beta"}, "34": {"stimulus": 60, "trial": 34, "rt": 1108, "response": "Alpha"}, "33": {"stimulus": 34, "trial": 33, "rt": 945, "response": "Beta"}, "55": {"stimulus": 46, "trial": 55, "rt": 1086, "response": "Beta"}, "74": {"stimulus": 14, "trial": 74, "rt": 634, "response": "Alpha"}, "32": {"stimulus": 2, "trial": 32, "rt": 705, "response": "Alpha"}, "57": {"stimulus": 0, "trial": 57, "rt": 1006, "response": "Alpha"}, "50": {"stimulus": 72, "trial": 50, "rt": 644, "response": "Alpha"}}, "experiment": {"Paradigm": "TACL", "Stimuli": "Size-Color Squares and Size-Orientation Circles", "Experiment": "Generating-Multiple-Categories"}, "submit": {"timeTotal": 1301285, "age": "25", "comments": "", "sex": "Male"}}