{"info": {"finish": 1554501796392, "participant": 26, "exposed": true, "lab": false, "start": 1554501437842, "counterbalance": 2, "stimtype": "Circles", "gentype": 1, "condition": "Corner_C", "browser": {"platform": "Win32", "userAgent": "Mozilla/5.0 (Windows NT 10.0; Win64; x64) AppleWebKit/537.36 (KHTML, like Gecko) Chrome/72.0.3626.121 Safari/537.36"}}, "observation": {"11": {"stimulus": 8, "trial": 11, "rt": 1146}, "10": {"stimulus": 0, "trial": 10, "rt": 1701}, "1": {"stimulus": 0, "trial": 1, "rt": 3479}, "0": {"stimulus": 8, "trial": 0, "rt": 6034}, "3": {"stimulus": 80, "trial": 3, "rt": 17090}, "2": {"stimulus": 72, "trial": 2, "rt": 12181}, "5": {"stimulus": 8, "trial": 5, "rt": 12510}, "4": {"stimulus": 72, "trial": 4, "rt": 2406}, "7": {"stimulus": 0, "trial": 7, "rt": 1739}, "6": {"stimulus": 80, "trial": 6, "rt": 2154}, "9": {"stimulus": 80, "trial": 9, "rt": 1891}, "8": {"stimulus": 72, "trial": 8, "rt": 2148}}, "generation": {"1": {"category": "Beta", "trial": 1, "stimulus": 20, "rt": 14976}, "0": {"category": "Beta", "trial": 0, "stimulus": 60, "rt": 17072}, "3": {"category": "Beta", "trial": 3, "stimulus": 40, "rt": 5700}, "2": {"category": "Beta", "trial": 2, "stimulus": 0, "rt": 9020}}, "generalization": {"56": {"stimulus": 40, "trial": 56, "rt": 645, "response": "Alpha"}, "77": {"stimulus": 58, "trial": 77, "rt": 266, "response": "Alpha"}, "54": {"stimulus": 42, "trial": 54, "rt": 1975, "response": "Beta"}, "42": {"stimulus": 4, "trial": 42, "rt": 636, "response": "Beta"}, "48": {"stimulus": 74, "trial": 48, "rt": 1097, "response": "Beta"}, "43": {"stimulus": 1, "trial": 43, "rt": 1510, "response": "Beta"}, "60": {"stimulus": 73, "trial": 60, "rt": 183, "response": "Beta"}, "61": {"stimulus": 13, "trial": 61, "rt": 1597, "response": "Alpha"}, "62": {"stimulus": 12, "trial": 62, "rt": 751, "response": "Alpha"}, "63": {"stimulus": 72, "trial": 63, "rt": 482, "response": "Alpha"}, "64": {"stimulus": 35, "trial": 64, "rt": 350, "response": "Beta"}, "49": {"stimulus": 77, "trial": 49, "rt": 4047, "response": "Alpha"}, "66": {"stimulus": 29, "trial": 66, "rt": 582, "response": "Beta"}, "67": {"stimulus": 70, "trial": 67, "rt": 605, "response": "Alpha"}, "68": {"stimulus": 45, "trial": 68, "rt": 5341, "response": "Alpha"}, "69": {"stimulus": 49, "trial": 69, "rt": 3184, "response": "Alpha"}, "80": {"stimulus": 11, "trial": 80, "rt": 342, "response": "Alpha"}, "52": {"stimulus": 19, "trial": 52, "rt": 1026, "response": "Alpha"}, "53": {"stimulus": 0, "trial": 53, "rt": 2538, "response": "Alpha"}, "24": {"stimulus": 28, "trial": 24, "rt": 953, "response": "Alpha"}, "25": {"stimulus": 30, "trial": 25, "rt": 2476, "response": "Alpha"}, "26": {"stimulus": 44, "trial": 26, "rt": 995, "response": "Alpha"}, "27": {"stimulus": 20, "trial": 27, "rt": 2099, "response": "Beta"}, "20": {"stimulus": 51, "trial": 20, "rt": 1130, "response": "Alpha"}, "21": {"stimulus": 78, "trial": 21, "rt": 1037, "response": "Alpha"}, "22": {"stimulus": 17, "trial": 22, "rt": 5273, "response": "Beta"}, "23": {"stimulus": 37, "trial": 23, "rt": 952, "response": "Alpha"}, "46": {"stimulus": 76, "trial": 46, "rt": 505, "response": "Alpha"}, "47": {"stimulus": 23, "trial": 47, "rt": 1074, "response": "Alpha"}, "44": {"stimulus": 38, "trial": 44, "rt": 658, "response": "Alpha"}, "45": {"stimulus": 10, "trial": 45, "rt": 1043, "response": "Alpha"}, "28": {"stimulus": 2, "trial": 28, "rt": 836, "response": "Alpha"}, "29": {"stimulus": 3, "trial": 29, "rt": 937, "response": "Alpha"}, "40": {"stimulus": 7, "trial": 40, "rt": 1060, "response": "Alpha"}, "41": {"stimulus": 25, "trial": 41, "rt": 766, "response": "Alpha"}, "1": {"stimulus": 59, "trial": 1, "rt": 9095, "response": "Beta"}, "0": {"stimulus": 52, "trial": 0, "rt": 1991, "response": "Alpha"}, "3": {"stimulus": 34, "trial": 3, "rt": 604, "response": "Beta"}, "2": {"stimulus": 54, "trial": 2, "rt": 1796, "response": "Alpha"}, "5": {"stimulus": 46, "trial": 5, "rt": 1029, "response": "Beta"}, "4": {"stimulus": 53, "trial": 4, "rt": 1646, "response": "Alpha"}, "7": {"stimulus": 27, "trial": 7, "rt": 2900, "response": "Alpha"}, "6": {"stimulus": 55, "trial": 6, "rt": 1068, "response": "Alpha"}, "9": {"stimulus": 47, "trial": 9, "rt": 189, "response": "Beta"}, "8": {"stimulus": 14, "trial": 8, "rt": 1976, "response": "Alpha"}, "78": {"stimulus": 62, "trial": 78, "rt": 267, "response": "Alpha"}, "51": {"stimulus": 36, "trial": 51, "rt": 1487, "response": "Beta"}, "39": {"stimulus": 48, "trial": 39, "rt": 1098, "response": "Alpha"}, "65": {"stimulus": 32, "trial": 65, "rt": 374, "response": "Alpha"}, "76": {"stimulus": 9, "trial": 76, "rt": 288, "response": "Beta"}, "75": {"stimulus": 71, "trial": 75, "rt": 805, "response": "Alpha"}, "38": {"stimulus": 56, "trial": 38, "rt": 820, "response": "Beta"}, "73": {"stimulus": 24, "trial": 73, "rt": 272, "response": "Beta"}, "72": {"stimulus": 66, "trial": 72, "rt": 388, "response": "Alpha"}, "71": {"stimulus": 26, "trial": 71, "rt": 10137, "response": "Alpha"}, "70": {"stimulus": 43, "trial": 70, "rt": 4515, "response": "Beta"}, "59": {"stimulus": 69, "trial": 59, "rt": 2322, "response": "Alpha"}, "79": {"stimulus": 0, "trial": 79, "rt": 273, "response": "Alpha"}, "58": {"stimulus": 33, "trial": 58, "rt": 819, "response": "Beta"}, "11": {"stimulus": 18, "trial": 11, "rt": 1038, "response": "Alpha"}, "10": {"stimulus": 21, "trial": 10, "rt": 513, "response": "Alpha"}, "13": {"stimulus": 79, "trial": 13, "rt": 1497, "response": "Beta"}, "12": {"stimulus": 68, "trial": 12, "rt": 412, "response": "Alpha"}, "15": {"stimulus": 65, "trial": 15, "rt": 4564, "response": "Beta"}, "14": {"stimulus": 67, "trial": 14, "rt": 868, "response": "Alpha"}, "17": {"stimulus": 6, "trial": 17, "rt": 4219, "response": "Alpha"}, "16": {"stimulus": 5, "trial": 16, "rt": 4033, "response": "Alpha"}, "19": {"stimulus": 16, "trial": 19, "rt": 1638, "response": "Beta"}, "18": {"stimulus": 50, "trial": 18, "rt": 1145, "response": "Alpha"}, "31": {"stimulus": 57, "trial": 31, "rt": 651, "response": "Beta"}, "30": {"stimulus": 61, "trial": 30, "rt": 367, "response": "Alpha"}, "37": {"stimulus": 8, "trial": 37, "rt": 1876, "response": "Beta"}, "36": {"stimulus": 22, "trial": 36, "rt": 250, "response": "Alpha"}, "35": {"stimulus": 31, "trial": 35, "rt": 3315, "response": "Beta"}, "34": {"stimulus": 60, "trial": 34, "rt": 2205, "response": "Alpha"}, "33": {"stimulus": 63, "trial": 33, "rt": 582, "response": "Alpha"}, "55": {"stimulus": 64, "trial": 55, "rt": 1714, "response": "Beta"}, "74": {"stimulus": 75, "trial": 74, "rt": 1798, "response": "Beta"}, "32": {"stimulus": 41, "trial": 32, "rt": 704, "response": "Alpha"}, "57": {"stimulus": 15, "trial": 57, "rt": 765, "response": "Alpha"}, "50": {"stimulus": 80, "trial": 50, "rt": 1197, "response": "Alpha"}}, "experiment": {"Paradigm": "TACL", "Stimuli": "Size-Color Squares and Size-Orientation Circles", "Experiment": "Generating-Multiple-Categories"}, "submit": {"timeTotal": 359390, "age": "27", "comments": "Thanks", "sex": "female"}}