{"info": {"finish": 1554501756923, "participant": 27, "exposed": true, "lab": false, "start": 1554501528684, "counterbalance": 3, "stimtype": "Circles", "gentype": 1, "condition": "Corner_C", "browser": {"platform": "Win32", "userAgent": "Mozilla/5.0 (Windows NT 10.0; Win64; x64) AppleWebKit/537.36 (KHTML, like Gecko) Chrome/73.0.3683.86 Safari/537.36"}}, "observation": {"11": {"stimulus": 8, "trial": 11, "rt": 1420}, "10": {"stimulus": 80, "trial": 10, "rt": 1264}, "1": {"stimulus": 8, "trial": 1, "rt": 1351}, "0": {"stimulus": 72, "trial": 0, "rt": 2287}, "3": {"stimulus": 0, "trial": 3, "rt": 1116}, "2": {"stimulus": 80, "trial": 2, "rt": 1288}, "5": {"stimulus": 0, "trial": 5, "rt": 1284}, "4": {"stimulus": 8, "trial": 4, "rt": 1236}, "7": {"stimulus": 72, "trial": 7, "rt": 1272}, "6": {"stimulus": 80, "trial": 6, "rt": 1100}, "9": {"stimulus": 72, "trial": 9, "rt": 1183}, "8": {"stimulus": 0, "trial": 8, "rt": 1271}}, "generation": {"1": {"category": "Beta", "trial": 1, "stimulus": 33, "rt": 4803}, "0": {"category": "Beta", "trial": 0, "stimulus": 38, "rt": 6226}, "3": {"category": "Beta", "trial": 3, "stimulus": 37, "rt": 3536}, "2": {"category": "Beta", "trial": 2, "stimulus": 46, "rt": 6161}}, "generalization": {"56": {"stimulus": 38, "trial": 56, "rt": 914, "response": "Beta"}, "77": {"stimulus": 28, "trial": 77, "rt": 1098, "response": "Beta"}, "54": {"stimulus": 62, "trial": 54, "rt": 602, "response": "Beta"}, "42": {"stimulus": 59, "trial": 42, "rt": 2049, "response": "Beta"}, "48": {"stimulus": 4, "trial": 48, "rt": 889, "response": "Alpha"}, "43": {"stimulus": 61, "trial": 43, "rt": 686, "response": "Beta"}, "60": {"stimulus": 15, "trial": 60, "rt": 826, "response": "Beta"}, "61": {"stimulus": 14, "trial": 61, "rt": 681, "response": "Beta"}, "62": {"stimulus": 29, "trial": 62, "rt": 515, "response": "Beta"}, "63": {"stimulus": 45, "trial": 63, "rt": 468, "response": "Beta"}, "64": {"stimulus": 1, "trial": 64, "rt": 750, "response": "Alpha"}, "49": {"stimulus": 12, "trial": 49, "rt": 1346, "response": "Beta"}, "66": {"stimulus": 67, "trial": 66, "rt": 1624, "response": "Alpha"}, "67": {"stimulus": 42, "trial": 67, "rt": 774, "response": "Beta"}, "68": {"stimulus": 7, "trial": 68, "rt": 968, "response": "Alpha"}, "69": {"stimulus": 70, "trial": 69, "rt": 995, "response": "Alpha"}, "80": {"stimulus": 58, "trial": 80, "rt": 640, "response": "Beta"}, "52": {"stimulus": 64, "trial": 52, "rt": 1124, "response": "Alpha"}, "53": {"stimulus": 19, "trial": 53, "rt": 1173, "response": "Beta"}, "24": {"stimulus": 71, "trial": 24, "rt": 1026, "response": "Alpha"}, "25": {"stimulus": 74, "trial": 25, "rt": 603, "response": "Alpha"}, "26": {"stimulus": 20, "trial": 26, "rt": 1341, "response": "Beta"}, "27": {"stimulus": 36, "trial": 27, "rt": 540, "response": "Beta"}, "20": {"stimulus": 21, "trial": 20, "rt": 1047, "response": "Beta"}, "21": {"stimulus": 69, "trial": 21, "rt": 1296, "response": "Alpha"}, "22": {"stimulus": 25, "trial": 22, "rt": 747, "response": "Beta"}, "23": {"stimulus": 24, "trial": 23, "rt": 662, "response": "Beta"}, "46": {"stimulus": 31, "trial": 46, "rt": 514, "response": "Beta"}, "47": {"stimulus": 18, "trial": 47, "rt": 514, "response": "Beta"}, "44": {"stimulus": 30, "trial": 44, "rt": 577, "response": "Beta"}, "45": {"stimulus": 17, "trial": 45, "rt": 536, "response": "Beta"}, "28": {"stimulus": 48, "trial": 28, "rt": 438, "response": "Beta"}, "29": {"stimulus": 80, "trial": 29, "rt": 837, "response": "Alpha"}, "40": {"stimulus": 34, "trial": 40, "rt": 736, "response": "Beta"}, "41": {"stimulus": 6, "trial": 41, "rt": 1414, "response": "Alpha"}, "1": {"stimulus": 22, "trial": 1, "rt": 975, "response": "Beta"}, "0": {"stimulus": 56, "trial": 0, "rt": 1856, "response": "Beta"}, "3": {"stimulus": 63, "trial": 3, "rt": 655, "response": "Alpha"}, "2": {"stimulus": 26, "trial": 2, "rt": 1065, "response": "Beta"}, "5": {"stimulus": 5, "trial": 5, "rt": 603, "response": "Alpha"}, "4": {"stimulus": 66, "trial": 4, "rt": 543, "response": "Alpha"}, "7": {"stimulus": 53, "trial": 7, "rt": 481, "response": "Beta"}, "6": {"stimulus": 40, "trial": 6, "rt": 1351, "response": "Beta"}, "9": {"stimulus": 0, "trial": 9, "rt": 479, "response": "Alpha"}, "8": {"stimulus": 76, "trial": 8, "rt": 711, "response": "Alpha"}, "78": {"stimulus": 51, "trial": 78, "rt": 541, "response": "Beta"}, "51": {"stimulus": 43, "trial": 51, "rt": 890, "response": "Beta"}, "39": {"stimulus": 2, "trial": 39, "rt": 727, "response": "Alpha"}, "65": {"stimulus": 9, "trial": 65, "rt": 860, "response": "Beta"}, "76": {"stimulus": 8, "trial": 76, "rt": 965, "response": "Alpha"}, "75": {"stimulus": 37, "trial": 75, "rt": 466, "response": "Beta"}, "38": {"stimulus": 46, "trial": 38, "rt": 610, "response": "Beta"}, "73": {"stimulus": 13, "trial": 73, "rt": 627, "response": "Beta"}, "72": {"stimulus": 35, "trial": 72, "rt": 471, "response": "Beta"}, "71": {"stimulus": 47, "trial": 71, "rt": 627, "response": "Beta"}, "70": {"stimulus": 23, "trial": 70, "rt": 1627, "response": "Beta"}, "59": {"stimulus": 72, "trial": 59, "rt": 731, "response": "Alpha"}, "79": {"stimulus": 60, "trial": 79, "rt": 730, "response": "Beta"}, "58": {"stimulus": 11, "trial": 58, "rt": 1072, "response": "Beta"}, "11": {"stimulus": 0, "trial": 11, "rt": 727, "response": "Alpha"}, "10": {"stimulus": 50, "trial": 10, "rt": 624, "response": "Beta"}, "13": {"stimulus": 57, "trial": 13, "rt": 711, "response": "Beta"}, "12": {"stimulus": 52, "trial": 12, "rt": 1370, "response": "Beta"}, "15": {"stimulus": 41, "trial": 15, "rt": 1056, "response": "Beta"}, "14": {"stimulus": 54, "trial": 14, "rt": 626, "response": "Beta"}, "17": {"stimulus": 49, "trial": 17, "rt": 614, "response": "Beta"}, "16": {"stimulus": 44, "trial": 16, "rt": 574, "response": "Beta"}, "19": {"stimulus": 73, "trial": 19, "rt": 553, "response": "Alpha"}, "18": {"stimulus": 77, "trial": 18, "rt": 1465, "response": "Alpha"}, "31": {"stimulus": 3, "trial": 31, "rt": 1183, "response": "Alpha"}, "30": {"stimulus": 16, "trial": 30, "rt": 1793, "response": "Beta"}, "37": {"stimulus": 27, "trial": 37, "rt": 750, "response": "Beta"}, "36": {"stimulus": 68, "trial": 36, "rt": 853, "response": "Alpha"}, "35": {"stimulus": 55, "trial": 35, "rt": 740, "response": "Beta"}, "34": {"stimulus": 65, "trial": 34, "rt": 1199, "response": "Alpha"}, "33": {"stimulus": 33, "trial": 33, "rt": 712, "response": "Beta"}, "55": {"stimulus": 79, "trial": 55, "rt": 946, "response": "Alpha"}, "74": {"stimulus": 32, "trial": 74, "rt": 469, "response": "Beta"}, "32": {"stimulus": 10, "trial": 32, "rt": 1617, "response": "Alpha"}, "57": {"stimulus": 75, "trial": 57, "rt": 1322, "response": "Alpha"}, "50": {"stimulus": 78, "trial": 50, "rt": 640, "response": "Beta"}}, "experiment": {"Paradigm": "TACL", "Stimuli": "Size-Color Squares and Size-Orientation Circles", "Experiment": "Generating-Multiple-Categories"}, "submit": {"timeTotal": 228883, "age": "32", "comments": "", "sex": "male"}}