{"info": {"finish": 1554502412683, "participant": 29, "exposed": true, "lab": false, "start": 1554502106526, "counterbalance": 0, "stimtype": "Squares", "gentype": 1, "condition": "Corner_S", "browser": {"platform": "Win32", "userAgent": "Mozilla/5.0 (Windows NT 10.0; Win64; x64) AppleWebKit/537.36 (KHTML, like Gecko) Chrome/73.0.3683.103 Safari/537.36"}}, "observation": {"11": {"stimulus": 0, "trial": 11, "rt": 1508}, "10": {"stimulus": 8, "trial": 10, "rt": 1530}, "1": {"stimulus": 0, "trial": 1, "rt": 1640}, "0": {"stimulus": 8, "trial": 0, "rt": 2464}, "3": {"stimulus": 80, "trial": 3, "rt": 1447}, "2": {"stimulus": 72, "trial": 2, "rt": 1930}, "5": {"stimulus": 80, "trial": 5, "rt": 2293}, "4": {"stimulus": 8, "trial": 4, "rt": 2325}, "7": {"stimulus": 72, "trial": 7, "rt": 1742}, "6": {"stimulus": 0, "trial": 6, "rt": 1985}, "9": {"stimulus": 80, "trial": 9, "rt": 1465}, "8": {"stimulus": 72, "trial": 8, "rt": 1568}}, "generation": {"1": {"category": "Beta", "trial": 1, "stimulus": 24, "rt": 9929}, "0": {"category": "Beta", "trial": 0, "stimulus": 39, "rt": 9575}, "3": {"category": "Beta", "trial": 3, "stimulus": 33, "rt": 12546}, "2": {"category": "Beta", "trial": 2, "stimulus": 47, "rt": 8184}}, "generalization": {"56": {"stimulus": 19, "trial": 56, "rt": 1160, "response": "Beta"}, "77": {"stimulus": 24, "trial": 77, "rt": 730, "response": "Beta"}, "54": {"stimulus": 23, "trial": 54, "rt": 990, "response": "Beta"}, "42": {"stimulus": 27, "trial": 42, "rt": 1019, "response": "Beta"}, "48": {"stimulus": 36, "trial": 48, "rt": 1032, "response": "Alpha"}, "43": {"stimulus": 5, "trial": 43, "rt": 805, "response": "Alpha"}, "60": {"stimulus": 22, "trial": 60, "rt": 743, "response": "Beta"}, "61": {"stimulus": 11, "trial": 61, "rt": 837, "response": "Alpha"}, "62": {"stimulus": 75, "trial": 62, "rt": 984, "response": "Alpha"}, "63": {"stimulus": 52, "trial": 63, "rt": 1066, "response": "Alpha"}, "64": {"stimulus": 71, "trial": 64, "rt": 972, "response": "Alpha"}, "49": {"stimulus": 56, "trial": 49, "rt": 767, "response": "Alpha"}, "66": {"stimulus": 9, "trial": 66, "rt": 1607, "response": "Beta"}, "67": {"stimulus": 4, "trial": 67, "rt": 958, "response": "Alpha"}, "68": {"stimulus": 18, "trial": 68, "rt": 1009, "response": "Beta"}, "69": {"stimulus": 63, "trial": 69, "rt": 1150, "response": "Alpha"}, "80": {"stimulus": 16, "trial": 80, "rt": 1062, "response": "Beta"}, "52": {"stimulus": 73, "trial": 52, "rt": 744, "response": "Alpha"}, "53": {"stimulus": 3, "trial": 53, "rt": 695, "response": "Alpha"}, "24": {"stimulus": 6, "trial": 24, "rt": 949, "response": "Alpha"}, "25": {"stimulus": 45, "trial": 25, "rt": 1023, "response": "Beta"}, "26": {"stimulus": 40, "trial": 26, "rt": 1094, "response": "Beta"}, "27": {"stimulus": 2, "trial": 27, "rt": 970, "response": "Alpha"}, "20": {"stimulus": 41, "trial": 20, "rt": 1512, "response": "Beta"}, "21": {"stimulus": 8, "trial": 21, "rt": 1025, "response": "Alpha"}, "22": {"stimulus": 42, "trial": 22, "rt": 950, "response": "Beta"}, "23": {"stimulus": 17, "trial": 23, "rt": 932, "response": "Alpha"}, "46": {"stimulus": 55, "trial": 46, "rt": 1081, "response": "Beta"}, "47": {"stimulus": 53, "trial": 47, "rt": 864, "response": "Alpha"}, "44": {"stimulus": 34, "trial": 44, "rt": 1058, "response": "Beta"}, "45": {"stimulus": 14, "trial": 45, "rt": 784, "response": "Alpha"}, "28": {"stimulus": 13, "trial": 28, "rt": 1346, "response": "Beta"}, "29": {"stimulus": 64, "trial": 29, "rt": 1126, "response": "Alpha"}, "40": {"stimulus": 28, "trial": 40, "rt": 1031, "response": "Beta"}, "41": {"stimulus": 43, "trial": 41, "rt": 1571, "response": "Beta"}, "1": {"stimulus": 7, "trial": 1, "rt": 2255, "response": "Alpha"}, "0": {"stimulus": 0, "trial": 0, "rt": 1728, "response": "Alpha"}, "3": {"stimulus": 57, "trial": 3, "rt": 1759, "response": "Alpha"}, "2": {"stimulus": 35, "trial": 2, "rt": 1496, "response": "Beta"}, "5": {"stimulus": 10, "trial": 5, "rt": 2297, "response": "Beta"}, "4": {"stimulus": 69, "trial": 4, "rt": 977, "response": "Alpha"}, "7": {"stimulus": 77, "trial": 7, "rt": 1119, "response": "Alpha"}, "6": {"stimulus": 78, "trial": 6, "rt": 1003, "response": "Alpha"}, "9": {"stimulus": 65, "trial": 9, "rt": 979, "response": "Beta"}, "8": {"stimulus": 62, "trial": 8, "rt": 1279, "response": "Beta"}, "78": {"stimulus": 68, "trial": 78, "rt": 850, "response": "Alpha"}, "51": {"stimulus": 46, "trial": 51, "rt": 911, "response": "Alpha"}, "39": {"stimulus": 33, "trial": 39, "rt": 801, "response": "Beta"}, "65": {"stimulus": 80, "trial": 65, "rt": 1150, "response": "Alpha"}, "76": {"stimulus": 20, "trial": 76, "rt": 969, "response": "Beta"}, "75": {"stimulus": 61, "trial": 75, "rt": 928, "response": "Alpha"}, "38": {"stimulus": 26, "trial": 38, "rt": 1067, "response": "Beta"}, "73": {"stimulus": 59, "trial": 73, "rt": 960, "response": "Alpha"}, "72": {"stimulus": 47, "trial": 72, "rt": 1400, "response": "Beta"}, "71": {"stimulus": 70, "trial": 71, "rt": 788, "response": "Alpha"}, "70": {"stimulus": 31, "trial": 70, "rt": 999, "response": "Beta"}, "59": {"stimulus": 49, "trial": 59, "rt": 1258, "response": "Beta"}, "79": {"stimulus": 74, "trial": 79, "rt": 630, "response": "Alpha"}, "58": {"stimulus": 25, "trial": 58, "rt": 930, "response": "Alpha"}, "11": {"stimulus": 79, "trial": 11, "rt": 1087, "response": "Alpha"}, "10": {"stimulus": 37, "trial": 10, "rt": 1031, "response": "Alpha"}, "13": {"stimulus": 60, "trial": 13, "rt": 1870, "response": "Beta"}, "12": {"stimulus": 51, "trial": 12, "rt": 1018, "response": "Beta"}, "15": {"stimulus": 67, "trial": 15, "rt": 1171, "response": "Alpha"}, "14": {"stimulus": 72, "trial": 14, "rt": 1135, "response": "Alpha"}, "17": {"stimulus": 15, "trial": 17, "rt": 1683, "response": "Alpha"}, "16": {"stimulus": 66, "trial": 16, "rt": 760, "response": "Alpha"}, "19": {"stimulus": 76, "trial": 19, "rt": 1242, "response": "Alpha"}, "18": {"stimulus": 30, "trial": 18, "rt": 1129, "response": "Beta"}, "31": {"stimulus": 50, "trial": 31, "rt": 901, "response": "Beta"}, "30": {"stimulus": 12, "trial": 30, "rt": 854, "response": "Alpha"}, "37": {"stimulus": 54, "trial": 37, "rt": 900, "response": "Alpha"}, "36": {"stimulus": 21, "trial": 36, "rt": 760, "response": "Alpha"}, "35": {"stimulus": 29, "trial": 35, "rt": 898, "response": "Alpha"}, "34": {"stimulus": 58, "trial": 34, "rt": 1019, "response": "Alpha"}, "33": {"stimulus": 44, "trial": 33, "rt": 1006, "response": "Beta"}, "55": {"stimulus": 48, "trial": 55, "rt": 917, "response": "Beta"}, "74": {"stimulus": 1, "trial": 74, "rt": 791, "response": "Alpha"}, "32": {"stimulus": 0, "trial": 32, "rt": 752, "response": "Alpha"}, "57": {"stimulus": 32, "trial": 57, "rt": 816, "response": "Beta"}, "50": {"stimulus": 38, "trial": 50, "rt": 1193, "response": "Beta"}}, "experiment": {"Paradigm": "TACL", "Stimuli": "Size-Color Squares and Size-Orientation Circles", "Experiment": "Generating-Multiple-Categories"}, "submit": {"timeTotal": 306433, "age": "38", "comments": "", "sex": "male"}}