{"info": {"finish": 1554492723523, "participant": 3, "exposed": true, "lab": true, "start": 1554492554450, "counterbalance": 2, "stimtype": "Circles", "gentype": 1, "condition": "Corner_C", "browser": {"platform": "MacIntel", "userAgent": "Mozilla/5.0 (Macintosh; Intel Mac OS X 10_14_1) AppleWebKit/537.36 (KHTML, like Gecko) Chrome/73.0.3683.86 Safari/537.36"}}, "observation": {"11": {"stimulus": 80, "trial": 11, "rt": 1345}, "10": {"stimulus": 72, "trial": 10, "rt": 1420}, "1": {"stimulus": 72, "trial": 1, "rt": 1506}, "0": {"stimulus": 0, "trial": 0, "rt": 2394}, "3": {"stimulus": 80, "trial": 3, "rt": 7686}, "2": {"stimulus": 8, "trial": 2, "rt": 1441}, "5": {"stimulus": 0, "trial": 5, "rt": 1384}, "4": {"stimulus": 80, "trial": 4, "rt": 1349}, "7": {"stimulus": 72, "trial": 7, "rt": 1342}, "6": {"stimulus": 8, "trial": 6, "rt": 1320}, "9": {"stimulus": 0, "trial": 9, "rt": 1424}, "8": {"stimulus": 8, "trial": 8, "rt": 1448}}, "generation": {"1": {"category": "Beta", "trial": 1, "stimulus": 57, "rt": 1249}, "0": {"category": "Beta", "trial": 0, "stimulus": 59, "rt": 3952}, "3": {"category": "Beta", "trial": 3, "stimulus": 51, "rt": 969}, "2": {"category": "Beta", "trial": 2, "stimulus": 12, "rt": 1673}}, "generalization": {"56": {"stimulus": 59, "trial": 56, "rt": 358, "response": "Alpha"}, "77": {"stimulus": 76, "trial": 77, "rt": 305, "response": "Alpha"}, "54": {"stimulus": 74, "trial": 54, "rt": 199, "response": "Alpha"}, "42": {"stimulus": 47, "trial": 42, "rt": 140, "response": "Alpha"}, "48": {"stimulus": 52, "trial": 48, "rt": 199, "response": "Alpha"}, "43": {"stimulus": 1, "trial": 43, "rt": 262, "response": "Alpha"}, "60": {"stimulus": 3, "trial": 60, "rt": 241, "response": "Alpha"}, "61": {"stimulus": 17, "trial": 61, "rt": 474, "response": "Alpha"}, "62": {"stimulus": 24, "trial": 62, "rt": 267, "response": "Alpha"}, "63": {"stimulus": 26, "trial": 63, "rt": 230, "response": "Alpha"}, "64": {"stimulus": 0, "trial": 64, "rt": 249, "response": "Alpha"}, "49": {"stimulus": 69, "trial": 49, "rt": 219, "response": "Alpha"}, "66": {"stimulus": 78, "trial": 66, "rt": 281, "response": "Alpha"}, "67": {"stimulus": 50, "trial": 67, "rt": 313, "response": "Alpha"}, "68": {"stimulus": 67, "trial": 68, "rt": 357, "response": "Alpha"}, "69": {"stimulus": 20, "trial": 69, "rt": 255, "response": "Alpha"}, "80": {"stimulus": 16, "trial": 80, "rt": 244, "response": "Alpha"}, "52": {"stimulus": 25, "trial": 52, "rt": 210, "response": "Alpha"}, "53": {"stimulus": 2, "trial": 53, "rt": 393, "response": "Alpha"}, "24": {"stimulus": 44, "trial": 24, "rt": 422, "response": "Beta"}, "25": {"stimulus": 30, "trial": 25, "rt": 219, "response": "Alpha"}, "26": {"stimulus": 11, "trial": 26, "rt": 216, "response": "Alpha"}, "27": {"stimulus": 77, "trial": 27, "rt": 389, "response": "Alpha"}, "20": {"stimulus": 70, "trial": 20, "rt": 256, "response": "Beta"}, "21": {"stimulus": 75, "trial": 21, "rt": 264, "response": "Beta"}, "22": {"stimulus": 68, "trial": 22, "rt": 138, "response": "Beta"}, "23": {"stimulus": 64, "trial": 23, "rt": 203, "response": "Beta"}, "46": {"stimulus": 4, "trial": 46, "rt": 234, "response": "Alpha"}, "47": {"stimulus": 27, "trial": 47, "rt": 201, "response": "Alpha"}, "44": {"stimulus": 18, "trial": 44, "rt": 248, "response": "Alpha"}, "45": {"stimulus": 32, "trial": 45, "rt": 266, "response": "Alpha"}, "28": {"stimulus": 37, "trial": 28, "rt": 539, "response": "Alpha"}, "29": {"stimulus": 22, "trial": 29, "rt": 200, "response": "Alpha"}, "40": {"stimulus": 8, "trial": 40, "rt": 113, "response": "Alpha"}, "41": {"stimulus": 7, "trial": 41, "rt": 334, "response": "Alpha"}, "1": {"stimulus": 12, "trial": 1, "rt": 348, "response": "Alpha"}, "0": {"stimulus": 15, "trial": 0, "rt": 878, "response": "Alpha"}, "3": {"stimulus": 48, "trial": 3, "rt": 133, "response": "Alpha"}, "2": {"stimulus": 62, "trial": 2, "rt": 160, "response": "Alpha"}, "5": {"stimulus": 61, "trial": 5, "rt": 162, "response": "Beta"}, "4": {"stimulus": 80, "trial": 4, "rt": 122, "response": "Alpha"}, "7": {"stimulus": 13, "trial": 7, "rt": 208, "response": "Beta"}, "6": {"stimulus": 34, "trial": 6, "rt": 256, "response": "Beta"}, "9": {"stimulus": 71, "trial": 9, "rt": 183, "response": "Beta"}, "8": {"stimulus": 51, "trial": 8, "rt": 227, "response": "Beta"}, "78": {"stimulus": 10, "trial": 78, "rt": 294, "response": "Alpha"}, "51": {"stimulus": 73, "trial": 51, "rt": 174, "response": "Alpha"}, "39": {"stimulus": 31, "trial": 39, "rt": 171, "response": "Alpha"}, "65": {"stimulus": 23, "trial": 65, "rt": 512, "response": "Alpha"}, "76": {"stimulus": 57, "trial": 76, "rt": 427, "response": "Alpha"}, "75": {"stimulus": 43, "trial": 75, "rt": 341, "response": "Alpha"}, "38": {"stimulus": 66, "trial": 38, "rt": 271, "response": "Alpha"}, "73": {"stimulus": 36, "trial": 73, "rt": 373, "response": "Alpha"}, "72": {"stimulus": 28, "trial": 72, "rt": 158, "response": "Alpha"}, "71": {"stimulus": 19, "trial": 71, "rt": 292, "response": "Alpha"}, "70": {"stimulus": 55, "trial": 70, "rt": 407, "response": "Alpha"}, "59": {"stimulus": 63, "trial": 59, "rt": 486, "response": "Alpha"}, "79": {"stimulus": 40, "trial": 79, "rt": 233, "response": "Alpha"}, "58": {"stimulus": 6, "trial": 58, "rt": 213, "response": "Alpha"}, "11": {"stimulus": 0, "trial": 11, "rt": 213, "response": "Beta"}, "10": {"stimulus": 33, "trial": 10, "rt": 157, "response": "Beta"}, "13": {"stimulus": 79, "trial": 13, "rt": 247, "response": "Beta"}, "12": {"stimulus": 5, "trial": 12, "rt": 476, "response": "Beta"}, "15": {"stimulus": 42, "trial": 15, "rt": 260, "response": "Beta"}, "14": {"stimulus": 21, "trial": 14, "rt": 261, "response": "Beta"}, "17": {"stimulus": 46, "trial": 17, "rt": 242, "response": "Beta"}, "16": {"stimulus": 54, "trial": 16, "rt": 133, "response": "Beta"}, "19": {"stimulus": 41, "trial": 19, "rt": 340, "response": "Beta"}, "18": {"stimulus": 49, "trial": 18, "rt": 432, "response": "Beta"}, "31": {"stimulus": 9, "trial": 31, "rt": 367, "response": "Alpha"}, "30": {"stimulus": 65, "trial": 30, "rt": 311, "response": "Alpha"}, "37": {"stimulus": 56, "trial": 37, "rt": 115, "response": "Alpha"}, "36": {"stimulus": 58, "trial": 36, "rt": 217, "response": "Alpha"}, "35": {"stimulus": 29, "trial": 35, "rt": 187, "response": "Alpha"}, "34": {"stimulus": 35, "trial": 34, "rt": 151, "response": "Alpha"}, "33": {"stimulus": 38, "trial": 33, "rt": 307, "response": "Alpha"}, "55": {"stimulus": 53, "trial": 55, "rt": 359, "response": "Alpha"}, "74": {"stimulus": 72, "trial": 74, "rt": 237, "response": "Alpha"}, "32": {"stimulus": 60, "trial": 32, "rt": 203, "response": "Alpha"}, "57": {"stimulus": 45, "trial": 57, "rt": 256, "response": "Alpha"}, "50": {"stimulus": 14, "trial": 50, "rt": 194, "response": "Alpha"}}, "experiment": {"Paradigm": "TACL", "Stimuli": "Size-Color Squares and Size-Orientation Circles", "Experiment": "Generating-Multiple-Categories"}, "submit": {"timeTotal": 169136, "age": "33", "comments": "2", "sex": "2"}}