{"info": {"finish": 1554502547767, "participant": 30, "exposed": true, "lab": false, "start": 1554502286614, "counterbalance": 0, "stimtype": "Squares", "gentype": 1, "condition": "Corner_S", "browser": {"platform": "Win32", "userAgent": "Mozilla/5.0 (Windows NT 10.0; Win64; x64) AppleWebKit/537.36 (KHTML, like Gecko) Chrome/73.0.3683.86 Safari/537.36"}}, "observation": {"11": {"stimulus": 72, "trial": 11, "rt": 1343}, "10": {"stimulus": 8, "trial": 10, "rt": 1373}, "1": {"stimulus": 0, "trial": 1, "rt": 1757}, "0": {"stimulus": 8, "trial": 0, "rt": 2775}, "3": {"stimulus": 72, "trial": 3, "rt": 1704}, "2": {"stimulus": 80, "trial": 2, "rt": 1904}, "5": {"stimulus": 80, "trial": 5, "rt": 1404}, "4": {"stimulus": 72, "trial": 4, "rt": 1738}, "7": {"stimulus": 0, "trial": 7, "rt": 1367}, "6": {"stimulus": 8, "trial": 6, "rt": 1445}, "9": {"stimulus": 80, "trial": 9, "rt": 1339}, "8": {"stimulus": 0, "trial": 8, "rt": 1622}}, "generation": {"1": {"category": "Beta", "trial": 1, "stimulus": 0, "rt": 8490}, "0": {"category": "Beta", "trial": 0, "stimulus": 72, "rt": 13555}, "3": {"category": "Beta", "trial": 3, "stimulus": 64, "rt": 6150}, "2": {"category": "Beta", "trial": 2, "stimulus": 62, "rt": 5365}}, "generalization": {"56": {"stimulus": 6, "trial": 56, "rt": 664, "response": "Alpha"}, "77": {"stimulus": 50, "trial": 77, "rt": 1406, "response": "Beta"}, "54": {"stimulus": 79, "trial": 54, "rt": 997, "response": "Alpha"}, "42": {"stimulus": 20, "trial": 42, "rt": 1347, "response": "Beta"}, "48": {"stimulus": 1, "trial": 48, "rt": 728, "response": "Alpha"}, "43": {"stimulus": 5, "trial": 43, "rt": 591, "response": "Alpha"}, "60": {"stimulus": 58, "trial": 60, "rt": 1472, "response": "Beta"}, "61": {"stimulus": 25, "trial": 61, "rt": 1017, "response": "Beta"}, "62": {"stimulus": 67, "trial": 62, "rt": 1110, "response": "Alpha"}, "63": {"stimulus": 71, "trial": 63, "rt": 588, "response": "Alpha"}, "64": {"stimulus": 0, "trial": 64, "rt": 675, "response": "Alpha"}, "49": {"stimulus": 3, "trial": 49, "rt": 706, "response": "Alpha"}, "66": {"stimulus": 46, "trial": 66, "rt": 2671, "response": "Beta"}, "67": {"stimulus": 73, "trial": 67, "rt": 1166, "response": "Alpha"}, "68": {"stimulus": 38, "trial": 68, "rt": 787, "response": "Beta"}, "69": {"stimulus": 42, "trial": 69, "rt": 2762, "response": "Beta"}, "80": {"stimulus": 30, "trial": 80, "rt": 1379, "response": "Beta"}, "52": {"stimulus": 27, "trial": 52, "rt": 828, "response": "Alpha"}, "53": {"stimulus": 35, "trial": 53, "rt": 1291, "response": "Beta"}, "24": {"stimulus": 59, "trial": 24, "rt": 1146, "response": "Beta"}, "25": {"stimulus": 63, "trial": 25, "rt": 1229, "response": "Beta"}, "26": {"stimulus": 40, "trial": 26, "rt": 1448, "response": "Beta"}, "27": {"stimulus": 60, "trial": 27, "rt": 952, "response": "Beta"}, "20": {"stimulus": 12, "trial": 20, "rt": 1172, "response": "Alpha"}, "21": {"stimulus": 45, "trial": 21, "rt": 1971, "response": "Beta"}, "22": {"stimulus": 65, "trial": 22, "rt": 908, "response": "Beta"}, "23": {"stimulus": 61, "trial": 23, "rt": 782, "response": "Beta"}, "46": {"stimulus": 10, "trial": 46, "rt": 1854, "response": "Alpha"}, "47": {"stimulus": 54, "trial": 47, "rt": 2520, "response": "Alpha"}, "44": {"stimulus": 57, "trial": 44, "rt": 1755, "response": "Beta"}, "45": {"stimulus": 36, "trial": 45, "rt": 928, "response": "Beta"}, "28": {"stimulus": 29, "trial": 28, "rt": 1146, "response": "Beta"}, "29": {"stimulus": 62, "trial": 29, "rt": 1464, "response": "Alpha"}, "40": {"stimulus": 18, "trial": 40, "rt": 1042, "response": "Beta"}, "41": {"stimulus": 51, "trial": 41, "rt": 2233, "response": "Beta"}, "1": {"stimulus": 72, "trial": 1, "rt": 851, "response": "Beta"}, "0": {"stimulus": 43, "trial": 0, "rt": 2237, "response": "Alpha"}, "3": {"stimulus": 24, "trial": 3, "rt": 1146, "response": "Alpha"}, "2": {"stimulus": 0, "trial": 2, "rt": 817, "response": "Alpha"}, "5": {"stimulus": 64, "trial": 5, "rt": 923, "response": "Alpha"}, "4": {"stimulus": 55, "trial": 4, "rt": 788, "response": "Beta"}, "7": {"stimulus": 47, "trial": 7, "rt": 1165, "response": "Alpha"}, "6": {"stimulus": 78, "trial": 6, "rt": 887, "response": "Alpha"}, "9": {"stimulus": 9, "trial": 9, "rt": 976, "response": "Alpha"}, "8": {"stimulus": 44, "trial": 8, "rt": 1455, "response": "Alpha"}, "78": {"stimulus": 56, "trial": 78, "rt": 789, "response": "Beta"}, "51": {"stimulus": 53, "trial": 51, "rt": 847, "response": "Beta"}, "39": {"stimulus": 69, "trial": 39, "rt": 836, "response": "Alpha"}, "65": {"stimulus": 11, "trial": 65, "rt": 413, "response": "Alpha"}, "76": {"stimulus": 34, "trial": 76, "rt": 689, "response": "Beta"}, "75": {"stimulus": 22, "trial": 75, "rt": 1174, "response": "Alpha"}, "38": {"stimulus": 15, "trial": 38, "rt": 594, "response": "Alpha"}, "73": {"stimulus": 37, "trial": 73, "rt": 1698, "response": "Beta"}, "72": {"stimulus": 76, "trial": 72, "rt": 859, "response": "Alpha"}, "71": {"stimulus": 66, "trial": 71, "rt": 901, "response": "Alpha"}, "70": {"stimulus": 48, "trial": 70, "rt": 868, "response": "Beta"}, "59": {"stimulus": 68, "trial": 59, "rt": 731, "response": "Alpha"}, "79": {"stimulus": 52, "trial": 79, "rt": 1320, "response": "Beta"}, "58": {"stimulus": 28, "trial": 58, "rt": 876, "response": "Beta"}, "11": {"stimulus": 75, "trial": 11, "rt": 810, "response": "Beta"}, "10": {"stimulus": 80, "trial": 10, "rt": 751, "response": "Beta"}, "13": {"stimulus": 74, "trial": 13, "rt": 925, "response": "Beta"}, "12": {"stimulus": 17, "trial": 12, "rt": 854, "response": "Alpha"}, "15": {"stimulus": 8, "trial": 15, "rt": 1347, "response": "Alpha"}, "14": {"stimulus": 4, "trial": 14, "rt": 1315, "response": "Alpha"}, "17": {"stimulus": 21, "trial": 17, "rt": 1083, "response": "Beta"}, "16": {"stimulus": 2, "trial": 16, "rt": 901, "response": "Alpha"}, "19": {"stimulus": 14, "trial": 19, "rt": 769, "response": "Alpha"}, "18": {"stimulus": 77, "trial": 18, "rt": 1518, "response": "Beta"}, "31": {"stimulus": 13, "trial": 31, "rt": 694, "response": "Alpha"}, "30": {"stimulus": 26, "trial": 30, "rt": 771, "response": "Alpha"}, "37": {"stimulus": 49, "trial": 37, "rt": 1319, "response": "Beta"}, "36": {"stimulus": 16, "trial": 36, "rt": 1037, "response": "Alpha"}, "35": {"stimulus": 19, "trial": 35, "rt": 1178, "response": "Beta"}, "34": {"stimulus": 41, "trial": 34, "rt": 595, "response": "Beta"}, "33": {"stimulus": 31, "trial": 33, "rt": 1493, "response": "Beta"}, "55": {"stimulus": 32, "trial": 55, "rt": 859, "response": "Beta"}, "74": {"stimulus": 7, "trial": 74, "rt": 1294, "response": "Alpha"}, "32": {"stimulus": 33, "trial": 32, "rt": 812, "response": "Beta"}, "57": {"stimulus": 23, "trial": 57, "rt": 815, "response": "Beta"}, "50": {"stimulus": 70, "trial": 50, "rt": 963, "response": "Beta"}}, "experiment": {"Paradigm": "TACL", "Stimuli": "Size-Color Squares and Size-Orientation Circles", "Experiment": "Generating-Multiple-Categories"}, "submit": {"timeTotal": 261402, "age": "26", "comments": "Thank you", "sex": "Male"}}