{"info": {"finish": 1554505380097, "participant": 32, "exposed": true, "lab": false, "start": 1554502833977, "counterbalance": 1, "stimtype": "Circles", "gentype": 1, "condition": "Corner_C", "browser": {"platform": "Win32", "userAgent": "Mozilla/5.0 (Windows NT 10.0; Win64; x64; rv:66.0) Gecko/20100101 Firefox/66.0"}}, "observation": {"11": {"stimulus": 0, "trial": 11, "rt": 2035}, "10": {"stimulus": 72, "trial": 10, "rt": 4585}, "1": {"stimulus": 80, "trial": 1, "rt": 2398}, "0": {"stimulus": 72, "trial": 0, "rt": 3753}, "3": {"stimulus": 8, "trial": 3, "rt": 1524}, "2": {"stimulus": 0, "trial": 2, "rt": 1637}, "5": {"stimulus": 80, "trial": 5, "rt": 1825}, "4": {"stimulus": 8, "trial": 4, "rt": 1451}, "7": {"stimulus": 0, "trial": 7, "rt": 1424}, "6": {"stimulus": 72, "trial": 6, "rt": 1447}, "9": {"stimulus": 80, "trial": 9, "rt": 1602}, "8": {"stimulus": 8, "trial": 8, "rt": 1434}}, "generation": {"1": {"category": "Beta", "trial": 1, "stimulus": 42, "rt": 10863}, "0": {"category": "Beta", "trial": 0, "stimulus": 40, "rt": 25562}, "3": {"category": "Beta", "trial": 3, "stimulus": 37, "rt": 5119}, "2": {"category": "Beta", "trial": 2, "stimulus": 44, "rt": 6191}}, "generalization": {"56": {"stimulus": 66, "trial": 56, "rt": 1931, "response": "Alpha"}, "77": {"stimulus": 78, "trial": 77, "rt": 802, "response": "Alpha"}, "54": {"stimulus": 5, "trial": 54, "rt": 923, "response": "Alpha"}, "42": {"stimulus": 16, "trial": 42, "rt": 1424, "response": "Alpha"}, "48": {"stimulus": 70, "trial": 48, "rt": 4475, "response": "Alpha"}, "43": {"stimulus": 61, "trial": 43, "rt": 2317, "response": "Alpha"}, "60": {"stimulus": 46, "trial": 60, "rt": 1628, "response": "Beta"}, "61": {"stimulus": 33, "trial": 61, "rt": 1394, "response": "Beta"}, "62": {"stimulus": 6, "trial": 62, "rt": 932, "response": "Alpha"}, "63": {"stimulus": 54, "trial": 63, "rt": 3651, "response": "Beta"}, "64": {"stimulus": 60, "trial": 64, "rt": 1412, "response": "Beta"}, "49": {"stimulus": 56, "trial": 49, "rt": 891, "response": "Alpha"}, "66": {"stimulus": 65, "trial": 66, "rt": 2587, "response": "Alpha"}, "67": {"stimulus": 29, "trial": 67, "rt": 1832, "response": "Beta"}, "68": {"stimulus": 22, "trial": 68, "rt": 859, "response": "Beta"}, "69": {"stimulus": 77, "trial": 69, "rt": 1003, "response": "Alpha"}, "80": {"stimulus": 62, "trial": 80, "rt": 1364, "response": "Alpha"}, "52": {"stimulus": 7, "trial": 52, "rt": 2140, "response": "Alpha"}, "53": {"stimulus": 69, "trial": 53, "rt": 1203, "response": "Alpha"}, "24": {"stimulus": 53, "trial": 24, "rt": 486, "response": "Beta"}, "25": {"stimulus": 43, "trial": 25, "rt": 55411, "response": "Alpha"}, "26": {"stimulus": 50, "trial": 26, "rt": 1723, "response": "Beta"}, "27": {"stimulus": 51, "trial": 27, "rt": 1134, "response": "Beta"}, "20": {"stimulus": 13, "trial": 20, "rt": 1729, "response": "Alpha"}, "21": {"stimulus": 2, "trial": 21, "rt": 947, "response": "Alpha"}, "22": {"stimulus": 48, "trial": 22, "rt": 1009, "response": "Beta"}, "23": {"stimulus": 74, "trial": 23, "rt": 886, "response": "Alpha"}, "46": {"stimulus": 40, "trial": 46, "rt": 1847, "response": "Beta"}, "47": {"stimulus": 41, "trial": 47, "rt": 964, "response": "Beta"}, "44": {"stimulus": 80, "trial": 44, "rt": 1503, "response": "Alpha"}, "45": {"stimulus": 19, "trial": 45, "rt": 1334, "response": "Beta"}, "28": {"stimulus": 76, "trial": 28, "rt": 1439, "response": "Alpha"}, "29": {"stimulus": 49, "trial": 29, "rt": 1186, "response": "Beta"}, "40": {"stimulus": 18, "trial": 40, "rt": 1251, "response": "Beta"}, "41": {"stimulus": 24, "trial": 41, "rt": 1026, "response": "Beta"}, "1": {"stimulus": 14, "trial": 1, "rt": 4210, "response": "Alpha"}, "0": {"stimulus": 34, "trial": 0, "rt": 3651, "response": "Beta"}, "3": {"stimulus": 45, "trial": 3, "rt": 4146, "response": "Beta"}, "2": {"stimulus": 72, "trial": 2, "rt": 1563, "response": "Alpha"}, "5": {"stimulus": 23, "trial": 5, "rt": 829, "response": "Beta"}, "4": {"stimulus": 25, "trial": 4, "rt": 1842, "response": "Beta"}, "7": {"stimulus": 64, "trial": 7, "rt": 1011, "response": "Alpha"}, "6": {"stimulus": 55, "trial": 6, "rt": 2073, "response": "Alpha"}, "9": {"stimulus": 11, "trial": 9, "rt": 1528, "response": "Alpha"}, "8": {"stimulus": 9, "trial": 8, "rt": 1330, "response": "Alpha"}, "78": {"stimulus": 3, "trial": 78, "rt": 1634, "response": "Alpha"}, "51": {"stimulus": 0, "trial": 51, "rt": 42331, "response": "Alpha"}, "39": {"stimulus": 0, "trial": 39, "rt": 1810, "response": "Alpha"}, "65": {"stimulus": 21, "trial": 65, "rt": 3722, "response": "Beta"}, "76": {"stimulus": 31, "trial": 76, "rt": 961, "response": "Beta"}, "75": {"stimulus": 4, "trial": 75, "rt": 851, "response": "Alpha"}, "38": {"stimulus": 26, "trial": 38, "rt": 1125, "response": "Beta"}, "73": {"stimulus": 17, "trial": 73, "rt": 469, "response": "Beta"}, "72": {"stimulus": 71, "trial": 72, "rt": 452, "response": "Alpha"}, "71": {"stimulus": 15, "trial": 71, "rt": 980, "response": "Beta"}, "70": {"stimulus": 36, "trial": 70, "rt": 668, "response": "Beta"}, "59": {"stimulus": 42, "trial": 59, "rt": 860, "response": "Beta"}, "79": {"stimulus": 8, "trial": 79, "rt": 969, "response": "Alpha"}, "58": {"stimulus": 63, "trial": 58, "rt": 915, "response": "Alpha"}, "11": {"stimulus": 67, "trial": 11, "rt": 867, "response": "Alpha"}, "10": {"stimulus": 79, "trial": 10, "rt": 1345, "response": "Alpha"}, "13": {"stimulus": 32, "trial": 13, "rt": 738, "response": "Beta"}, "12": {"stimulus": 30, "trial": 12, "rt": 1201, "response": "Beta"}, "15": {"stimulus": 73, "trial": 15, "rt": 1240, "response": "Alpha"}, "14": {"stimulus": 59, "trial": 14, "rt": 2363, "response": "Beta"}, "17": {"stimulus": 57, "trial": 17, "rt": 4264, "response": "Beta"}, "16": {"stimulus": 20, "trial": 16, "rt": 2337, "response": "Beta"}, "19": {"stimulus": 52, "trial": 19, "rt": 1382, "response": "Beta"}, "18": {"stimulus": 58, "trial": 18, "rt": 1467, "response": "Beta"}, "31": {"stimulus": 68, "trial": 31, "rt": 2183, "response": "Alpha"}, "30": {"stimulus": 37, "trial": 30, "rt": 1478, "response": "Beta"}, "37": {"stimulus": 35, "trial": 37, "rt": 148274, "response": "Beta"}, "36": {"stimulus": 10, "trial": 36, "rt": 1008, "response": "Beta"}, "35": {"stimulus": 44, "trial": 35, "rt": 1015, "response": "Beta"}, "34": {"stimulus": 1, "trial": 34, "rt": 2599, "response": "Alpha"}, "33": {"stimulus": 38, "trial": 33, "rt": 988, "response": "Beta"}, "55": {"stimulus": 28, "trial": 55, "rt": 1524, "response": "Beta"}, "74": {"stimulus": 47, "trial": 74, "rt": 24432, "response": "Beta"}, "32": {"stimulus": 12, "trial": 32, "rt": 1667, "response": "Alpha"}, "57": {"stimulus": 75, "trial": 57, "rt": 1388, "response": "Alpha"}, "50": {"stimulus": 27, "trial": 50, "rt": 1562, "response": "Beta"}}, "experiment": {"Paradigm": "TACL", "Stimuli": "Size-Color Squares and Size-Orientation Circles", "Experiment": "Generating-Multiple-Categories"}, "submit": {"timeTotal": 2546275, "age": "27", "comments": "No problems. Hope i did it right. Thanks.", "sex": "M"}}