{"info": {"finish": 1554503263717, "participant": 33, "exposed": true, "lab": false, "start": 1554502838433, "counterbalance": 0, "stimtype": "Circles", "gentype": 1, "condition": "Corner_C", "browser": {"platform": "Win32", "userAgent": "Mozilla/5.0 (Windows NT 10.0; Win64; x64) AppleWebKit/537.36 (KHTML, like Gecko) Chrome/73.0.3683.86 Safari/537.36"}}, "observation": {"11": {"stimulus": 80, "trial": 11, "rt": 2569}, "10": {"stimulus": 0, "trial": 10, "rt": 11525}, "1": {"stimulus": 8, "trial": 1, "rt": 6430}, "0": {"stimulus": 0, "trial": 0, "rt": 2944}, "3": {"stimulus": 80, "trial": 3, "rt": 4176}, "2": {"stimulus": 72, "trial": 2, "rt": 2190}, "5": {"stimulus": 0, "trial": 5, "rt": 18080}, "4": {"stimulus": 8, "trial": 4, "rt": 2958}, "7": {"stimulus": 72, "trial": 7, "rt": 1644}, "6": {"stimulus": 80, "trial": 6, "rt": 10012}, "9": {"stimulus": 72, "trial": 9, "rt": 1533}, "8": {"stimulus": 8, "trial": 8, "rt": 2738}}, "generation": {"1": {"category": "Beta", "trial": 1, "stimulus": 4, "rt": 9877}, "0": {"category": "Beta", "trial": 0, "stimulus": 76, "rt": 15005}, "3": {"category": "Beta", "trial": 3, "stimulus": 58, "rt": 5278}, "2": {"category": "Beta", "trial": 2, "stimulus": 13, "rt": 19842}}, "generalization": {"56": {"stimulus": 1, "trial": 56, "rt": 1082, "response": "Alpha"}, "77": {"stimulus": 36, "trial": 77, "rt": 1570, "response": "Beta"}, "54": {"stimulus": 7, "trial": 54, "rt": 1212, "response": "Beta"}, "42": {"stimulus": 33, "trial": 42, "rt": 961, "response": "Beta"}, "48": {"stimulus": 27, "trial": 48, "rt": 892, "response": "Alpha"}, "43": {"stimulus": 24, "trial": 43, "rt": 1388, "response": "Alpha"}, "60": {"stimulus": 5, "trial": 60, "rt": 514, "response": "Alpha"}, "61": {"stimulus": 12, "trial": 61, "rt": 724, "response": "Alpha"}, "62": {"stimulus": 57, "trial": 62, "rt": 672, "response": "Alpha"}, "63": {"stimulus": 51, "trial": 63, "rt": 1357, "response": "Beta"}, "64": {"stimulus": 46, "trial": 64, "rt": 732, "response": "Beta"}, "49": {"stimulus": 16, "trial": 49, "rt": 1467, "response": "Beta"}, "66": {"stimulus": 52, "trial": 66, "rt": 572, "response": "Alpha"}, "67": {"stimulus": 69, "trial": 67, "rt": 2634, "response": "Beta"}, "68": {"stimulus": 18, "trial": 68, "rt": 2558, "response": "Beta"}, "69": {"stimulus": 59, "trial": 69, "rt": 538, "response": "Beta"}, "80": {"stimulus": 0, "trial": 80, "rt": 803, "response": "Alpha"}, "52": {"stimulus": 47, "trial": 52, "rt": 934, "response": "Beta"}, "53": {"stimulus": 49, "trial": 53, "rt": 1799, "response": "Alpha"}, "24": {"stimulus": 74, "trial": 24, "rt": 694, "response": "Beta"}, "25": {"stimulus": 79, "trial": 25, "rt": 724, "response": "Beta"}, "26": {"stimulus": 78, "trial": 26, "rt": 440, "response": "Alpha"}, "27": {"stimulus": 60, "trial": 27, "rt": 705, "response": "Beta"}, "20": {"stimulus": 75, "trial": 20, "rt": 1371, "response": "Alpha"}, "21": {"stimulus": 14, "trial": 21, "rt": 1301, "response": "Alpha"}, "22": {"stimulus": 37, "trial": 22, "rt": 764, "response": "Beta"}, "23": {"stimulus": 70, "trial": 23, "rt": 666, "response": "Alpha"}, "46": {"stimulus": 55, "trial": 46, "rt": 4156, "response": "Alpha"}, "47": {"stimulus": 68, "trial": 47, "rt": 1408, "response": "Beta"}, "44": {"stimulus": 58, "trial": 44, "rt": 539, "response": "Alpha"}, "45": {"stimulus": 77, "trial": 45, "rt": 412, "response": "Beta"}, "28": {"stimulus": 56, "trial": 28, "rt": 1376, "response": "Alpha"}, "29": {"stimulus": 65, "trial": 29, "rt": 1206, "response": "Beta"}, "40": {"stimulus": 2, "trial": 40, "rt": 452, "response": "Alpha"}, "41": {"stimulus": 76, "trial": 41, "rt": 562, "response": "Beta"}, "1": {"stimulus": 54, "trial": 1, "rt": 625, "response": "Beta"}, "0": {"stimulus": 4, "trial": 0, "rt": 2513, "response": "Alpha"}, "3": {"stimulus": 66, "trial": 3, "rt": 714, "response": "Alpha"}, "2": {"stimulus": 19, "trial": 2, "rt": 480, "response": "Alpha"}, "5": {"stimulus": 13, "trial": 5, "rt": 28159, "response": "Beta"}, "4": {"stimulus": 28, "trial": 4, "rt": 481, "response": "Alpha"}, "7": {"stimulus": 42, "trial": 7, "rt": 419, "response": "Beta"}, "6": {"stimulus": 40, "trial": 6, "rt": 626, "response": "Alpha"}, "9": {"stimulus": 35, "trial": 9, "rt": 1036, "response": "Alpha"}, "8": {"stimulus": 38, "trial": 8, "rt": 578, "response": "Beta"}, "78": {"stimulus": 48, "trial": 78, "rt": 1003, "response": "Alpha"}, "51": {"stimulus": 61, "trial": 51, "rt": 451, "response": "Beta"}, "39": {"stimulus": 8, "trial": 39, "rt": 536, "response": "Alpha"}, "65": {"stimulus": 15, "trial": 65, "rt": 929, "response": "Beta"}, "76": {"stimulus": 53, "trial": 76, "rt": 6211, "response": "Alpha"}, "75": {"stimulus": 73, "trial": 75, "rt": 1915, "response": "Beta"}, "38": {"stimulus": 3, "trial": 38, "rt": 990, "response": "Alpha"}, "73": {"stimulus": 30, "trial": 73, "rt": 1329, "response": "Beta"}, "72": {"stimulus": 44, "trial": 72, "rt": 1372, "response": "Alpha"}, "71": {"stimulus": 6, "trial": 71, "rt": 5579, "response": "Alpha"}, "70": {"stimulus": 71, "trial": 70, "rt": 1157, "response": "Beta"}, "59": {"stimulus": 43, "trial": 59, "rt": 20808, "response": "Beta"}, "79": {"stimulus": 63, "trial": 79, "rt": 1692, "response": "Alpha"}, "58": {"stimulus": 0, "trial": 58, "rt": 2192, "response": "Alpha"}, "11": {"stimulus": 45, "trial": 11, "rt": 5054, "response": "Beta"}, "10": {"stimulus": 31, "trial": 10, "rt": 611, "response": "Alpha"}, "13": {"stimulus": 9, "trial": 13, "rt": 962, "response": "Alpha"}, "12": {"stimulus": 22, "trial": 12, "rt": 1254, "response": "Beta"}, "15": {"stimulus": 10, "trial": 15, "rt": 869, "response": "Beta"}, "14": {"stimulus": 64, "trial": 14, "rt": 1432, "response": "Alpha"}, "17": {"stimulus": 34, "trial": 17, "rt": 913, "response": "Beta"}, "16": {"stimulus": 17, "trial": 16, "rt": 1188, "response": "Alpha"}, "19": {"stimulus": 29, "trial": 19, "rt": 1266, "response": "Beta"}, "18": {"stimulus": 67, "trial": 18, "rt": 30273, "response": "Alpha"}, "31": {"stimulus": 11, "trial": 31, "rt": 5314, "response": "Alpha"}, "30": {"stimulus": 62, "trial": 30, "rt": 443, "response": "Beta"}, "37": {"stimulus": 21, "trial": 37, "rt": 583, "response": "Beta"}, "36": {"stimulus": 32, "trial": 36, "rt": 483, "response": "Beta"}, "35": {"stimulus": 50, "trial": 35, "rt": 741, "response": "Beta"}, "34": {"stimulus": 80, "trial": 34, "rt": 1370, "response": "Alpha"}, "33": {"stimulus": 41, "trial": 33, "rt": 633, "response": "Beta"}, "55": {"stimulus": 20, "trial": 55, "rt": 592, "response": "Beta"}, "74": {"stimulus": 72, "trial": 74, "rt": 6658, "response": "Alpha"}, "32": {"stimulus": 26, "trial": 32, "rt": 595, "response": "Alpha"}, "57": {"stimulus": 23, "trial": 57, "rt": 901, "response": "Alpha"}, "50": {"stimulus": 25, "trial": 50, "rt": 753, "response": "Alpha"}}, "experiment": {"Paradigm": "TACL", "Stimuli": "Size-Color Squares and Size-Orientation Circles", "Experiment": "Generating-Multiple-Categories"}, "submit": {"timeTotal": 427014, "age": "26", "comments": "", "sex": "female"}}