{"info": {"finish": 1554505559169, "participant": 37, "exposed": true, "lab": false, "start": 1554505187367, "counterbalance": 2, "stimtype": "Squares", "gentype": 1, "condition": "Corner_S", "browser": {"platform": "Win32", "userAgent": "Mozilla/5.0 (Windows NT 10.0) AppleWebKit/537.36 (KHTML, like Gecko) Chrome/73.0.3683.86 Safari/537.36"}}, "observation": {"11": {"stimulus": 0, "trial": 11, "rt": 1730}, "10": {"stimulus": 72, "trial": 10, "rt": 4694}, "1": {"stimulus": 80, "trial": 1, "rt": 2793}, "0": {"stimulus": 0, "trial": 0, "rt": 4783}, "3": {"stimulus": 8, "trial": 3, "rt": 1870}, "2": {"stimulus": 72, "trial": 2, "rt": 2086}, "5": {"stimulus": 0, "trial": 5, "rt": 2589}, "4": {"stimulus": 8, "trial": 4, "rt": 1732}, "7": {"stimulus": 72, "trial": 7, "rt": 2177}, "6": {"stimulus": 80, "trial": 6, "rt": 2590}, "9": {"stimulus": 8, "trial": 9, "rt": 1950}, "8": {"stimulus": 80, "trial": 8, "rt": 3421}}, "generation": {"1": {"category": "Beta", "trial": 1, "stimulus": 74, "rt": 7446}, "0": {"category": "Beta", "trial": 0, "stimulus": 66, "rt": 18133}, "3": {"category": "Beta", "trial": 3, "stimulus": 6, "rt": 6739}, "2": {"category": "Beta", "trial": 2, "stimulus": 42, "rt": 4116}}, "generalization": {"56": {"stimulus": 21, "trial": 56, "rt": 1814, "response": "Beta"}, "77": {"stimulus": 1, "trial": 77, "rt": 1165, "response": "Alpha"}, "54": {"stimulus": 69, "trial": 54, "rt": 2526, "response": "Alpha"}, "42": {"stimulus": 73, "trial": 42, "rt": 845, "response": "Alpha"}, "48": {"stimulus": 50, "trial": 48, "rt": 933, "response": "Alpha"}, "43": {"stimulus": 16, "trial": 43, "rt": 1015, "response": "Beta"}, "60": {"stimulus": 7, "trial": 60, "rt": 7806, "response": "Beta"}, "61": {"stimulus": 4, "trial": 61, "rt": 1484, "response": "Beta"}, "62": {"stimulus": 66, "trial": 62, "rt": 1663, "response": "Alpha"}, "63": {"stimulus": 78, "trial": 63, "rt": 1133, "response": "Beta"}, "64": {"stimulus": 42, "trial": 64, "rt": 2532, "response": "Beta"}, "49": {"stimulus": 31, "trial": 49, "rt": 1327, "response": "Alpha"}, "66": {"stimulus": 14, "trial": 66, "rt": 1317, "response": "Alpha"}, "67": {"stimulus": 57, "trial": 67, "rt": 1318, "response": "Alpha"}, "68": {"stimulus": 46, "trial": 68, "rt": 2213, "response": "Beta"}, "69": {"stimulus": 35, "trial": 69, "rt": 1073, "response": "Beta"}, "80": {"stimulus": 44, "trial": 80, "rt": 1437, "response": "Alpha"}, "52": {"stimulus": 0, "trial": 52, "rt": 1358, "response": "Alpha"}, "53": {"stimulus": 36, "trial": 53, "rt": 2089, "response": "Beta"}, "24": {"stimulus": 63, "trial": 24, "rt": 7332, "response": "Alpha"}, "25": {"stimulus": 59, "trial": 25, "rt": 1615, "response": "Beta"}, "26": {"stimulus": 52, "trial": 26, "rt": 1252, "response": "Alpha"}, "27": {"stimulus": 60, "trial": 27, "rt": 1721, "response": "Alpha"}, "20": {"stimulus": 55, "trial": 20, "rt": 1189, "response": "Alpha"}, "21": {"stimulus": 26, "trial": 21, "rt": 3715, "response": "Beta"}, "22": {"stimulus": 12, "trial": 22, "rt": 1253, "response": "Alpha"}, "23": {"stimulus": 45, "trial": 23, "rt": 8179, "response": "Alpha"}, "46": {"stimulus": 54, "trial": 46, "rt": 1278, "response": "Alpha"}, "47": {"stimulus": 33, "trial": 47, "rt": 901, "response": "Beta"}, "44": {"stimulus": 40, "trial": 44, "rt": 794, "response": "Alpha"}, "45": {"stimulus": 5, "trial": 45, "rt": 923, "response": "Beta"}, "28": {"stimulus": 43, "trial": 28, "rt": 1558, "response": "Beta"}, "29": {"stimulus": 47, "trial": 29, "rt": 788, "response": "Alpha"}, "40": {"stimulus": 29, "trial": 40, "rt": 1324, "response": "Alpha"}, "41": {"stimulus": 80, "trial": 41, "rt": 1029, "response": "Beta"}, "1": {"stimulus": 38, "trial": 1, "rt": 1815, "response": "Alpha"}, "0": {"stimulus": 75, "trial": 0, "rt": 7607, "response": "Alpha"}, "3": {"stimulus": 49, "trial": 3, "rt": 1373, "response": "Alpha"}, "2": {"stimulus": 9, "trial": 2, "rt": 3198, "response": "Beta"}, "5": {"stimulus": 79, "trial": 5, "rt": 5516, "response": "Beta"}, "4": {"stimulus": 76, "trial": 4, "rt": 1702, "response": "Beta"}, "7": {"stimulus": 19, "trial": 7, "rt": 1691, "response": "Alpha"}, "6": {"stimulus": 77, "trial": 6, "rt": 1134, "response": "Alpha"}, "9": {"stimulus": 28, "trial": 9, "rt": 900, "response": "Beta"}, "8": {"stimulus": 18, "trial": 8, "rt": 1121, "response": "Beta"}, "78": {"stimulus": 53, "trial": 78, "rt": 3398, "response": "Beta"}, "51": {"stimulus": 72, "trial": 51, "rt": 6151, "response": "Alpha"}, "39": {"stimulus": 30, "trial": 39, "rt": 1637, "response": "Alpha"}, "65": {"stimulus": 17, "trial": 65, "rt": 949, "response": "Beta"}, "76": {"stimulus": 27, "trial": 76, "rt": 823, "response": "Alpha"}, "75": {"stimulus": 8, "trial": 75, "rt": 993, "response": "Beta"}, "38": {"stimulus": 64, "trial": 38, "rt": 955, "response": "Alpha"}, "73": {"stimulus": 70, "trial": 73, "rt": 1570, "response": "Beta"}, "72": {"stimulus": 0, "trial": 72, "rt": 1182, "response": "Alpha"}, "71": {"stimulus": 20, "trial": 71, "rt": 5602, "response": "Beta"}, "70": {"stimulus": 61, "trial": 70, "rt": 1547, "response": "Alpha"}, "59": {"stimulus": 62, "trial": 59, "rt": 1277, "response": "Beta"}, "79": {"stimulus": 2, "trial": 79, "rt": 2235, "response": "Alpha"}, "58": {"stimulus": 68, "trial": 58, "rt": 1393, "response": "Alpha"}, "11": {"stimulus": 13, "trial": 11, "rt": 1228, "response": "Beta"}, "10": {"stimulus": 56, "trial": 10, "rt": 1111, "response": "Alpha"}, "13": {"stimulus": 48, "trial": 13, "rt": 911, "response": "Alpha"}, "12": {"stimulus": 15, "trial": 12, "rt": 917, "response": "Beta"}, "15": {"stimulus": 6, "trial": 15, "rt": 1439, "response": "Beta"}, "14": {"stimulus": 32, "trial": 14, "rt": 935, "response": "Alpha"}, "17": {"stimulus": 10, "trial": 17, "rt": 1055, "response": "Alpha"}, "16": {"stimulus": 34, "trial": 16, "rt": 866, "response": "Alpha"}, "19": {"stimulus": 58, "trial": 19, "rt": 2812, "response": "Beta"}, "18": {"stimulus": 74, "trial": 18, "rt": 1228, "response": "Alpha"}, "31": {"stimulus": 3, "trial": 31, "rt": 827, "response": "Alpha"}, "30": {"stimulus": 11, "trial": 30, "rt": 969, "response": "Alpha"}, "37": {"stimulus": 25, "trial": 37, "rt": 1523, "response": "Beta"}, "36": {"stimulus": 51, "trial": 36, "rt": 881, "response": "Beta"}, "35": {"stimulus": 67, "trial": 35, "rt": 1093, "response": "Alpha"}, "34": {"stimulus": 22, "trial": 34, "rt": 1118, "response": "Alpha"}, "33": {"stimulus": 24, "trial": 33, "rt": 661, "response": "Alpha"}, "55": {"stimulus": 41, "trial": 55, "rt": 1786, "response": "Alpha"}, "74": {"stimulus": 23, "trial": 74, "rt": 5586, "response": "Beta"}, "32": {"stimulus": 65, "trial": 32, "rt": 806, "response": "Beta"}, "57": {"stimulus": 71, "trial": 57, "rt": 6046, "response": "Alpha"}, "50": {"stimulus": 37, "trial": 50, "rt": 707, "response": "Alpha"}}, "experiment": {"Paradigm": "TACL", "Stimuli": "Size-Color Squares and Size-Orientation Circles", "Experiment": "Generating-Multiple-Categories"}, "submit": {"timeTotal": 373540, "age": "28", "comments": "awesome task", "sex": "male"}}