{"info": {"finish": 1554506100699, "participant": 38, "exposed": true, "lab": false, "start": 1554505584938, "counterbalance": 3, "stimtype": "Squares", "gentype": 1, "condition": "Corner_S", "browser": {"platform": "Win32", "userAgent": "Mozilla/5.0 (Windows NT 10.0; Win64; x64) AppleWebKit/537.36 (KHTML, like Gecko) Chrome/72.0.3626.121 Safari/537.36"}}, "observation": {"11": {"stimulus": 0, "trial": 11, "rt": 1470}, "10": {"stimulus": 8, "trial": 10, "rt": 1550}, "1": {"stimulus": 0, "trial": 1, "rt": 2542}, "0": {"stimulus": 80, "trial": 0, "rt": 5602}, "3": {"stimulus": 8, "trial": 3, "rt": 2984}, "2": {"stimulus": 72, "trial": 2, "rt": 2452}, "5": {"stimulus": 8, "trial": 5, "rt": 1793}, "4": {"stimulus": 80, "trial": 4, "rt": 3099}, "7": {"stimulus": 0, "trial": 7, "rt": 2042}, "6": {"stimulus": 72, "trial": 6, "rt": 1458}, "9": {"stimulus": 80, "trial": 9, "rt": 1687}, "8": {"stimulus": 72, "trial": 8, "rt": 1590}}, "generation": {"1": {"category": "Beta", "trial": 1, "stimulus": 16, "rt": 12632}, "0": {"category": "Beta", "trial": 0, "stimulus": 8, "rt": 38697}, "3": {"category": "Beta", "trial": 3, "stimulus": 79, "rt": 6666}, "2": {"category": "Beta", "trial": 2, "stimulus": 80, "rt": 11757}}, "generalization": {"56": {"stimulus": 50, "trial": 56, "rt": 892, "response": "Beta"}, "77": {"stimulus": 68, "trial": 77, "rt": 1843, "response": "Beta"}, "54": {"stimulus": 56, "trial": 54, "rt": 875, "response": "Beta"}, "42": {"stimulus": 27, "trial": 42, "rt": 1427, "response": "Beta"}, "48": {"stimulus": 31, "trial": 48, "rt": 986, "response": "Beta"}, "43": {"stimulus": 64, "trial": 43, "rt": 2043, "response": "Beta"}, "60": {"stimulus": 6, "trial": 60, "rt": 2089, "response": "Alpha"}, "61": {"stimulus": 32, "trial": 61, "rt": 1224, "response": "Beta"}, "62": {"stimulus": 40, "trial": 62, "rt": 1046, "response": "Beta"}, "63": {"stimulus": 60, "trial": 63, "rt": 815, "response": "Beta"}, "64": {"stimulus": 78, "trial": 64, "rt": 1221, "response": "Alpha"}, "49": {"stimulus": 19, "trial": 49, "rt": 1292, "response": "Beta"}, "66": {"stimulus": 52, "trial": 66, "rt": 1602, "response": "Beta"}, "67": {"stimulus": 3, "trial": 67, "rt": 1332, "response": "Alpha"}, "68": {"stimulus": 5, "trial": 68, "rt": 922, "response": "Alpha"}, "69": {"stimulus": 70, "trial": 69, "rt": 1539, "response": "Beta"}, "80": {"stimulus": 0, "trial": 80, "rt": 657, "response": "Alpha"}, "52": {"stimulus": 69, "trial": 52, "rt": 1118, "response": "Beta"}, "53": {"stimulus": 61, "trial": 53, "rt": 937, "response": "Beta"}, "24": {"stimulus": 55, "trial": 24, "rt": 1268, "response": "Beta"}, "25": {"stimulus": 66, "trial": 25, "rt": 2741, "response": "Beta"}, "26": {"stimulus": 47, "trial": 26, "rt": 1378, "response": "Beta"}, "27": {"stimulus": 16, "trial": 27, "rt": 1617, "response": "Alpha"}, "20": {"stimulus": 79, "trial": 20, "rt": 1108, "response": "Alpha"}, "21": {"stimulus": 12, "trial": 21, "rt": 2933, "response": "Alpha"}, "22": {"stimulus": 34, "trial": 22, "rt": 1106, "response": "Beta"}, "23": {"stimulus": 33, "trial": 23, "rt": 1253, "response": "Beta"}, "46": {"stimulus": 0, "trial": 46, "rt": 1596, "response": "Alpha"}, "47": {"stimulus": 59, "trial": 47, "rt": 1284, "response": "Beta"}, "44": {"stimulus": 28, "trial": 44, "rt": 1445, "response": "Beta"}, "45": {"stimulus": 62, "trial": 45, "rt": 1204, "response": "Beta"}, "28": {"stimulus": 77, "trial": 28, "rt": 1237, "response": "Alpha"}, "29": {"stimulus": 42, "trial": 29, "rt": 1660, "response": "Beta"}, "40": {"stimulus": 18, "trial": 40, "rt": 2225, "response": "Beta"}, "41": {"stimulus": 73, "trial": 41, "rt": 1819, "response": "Alpha"}, "1": {"stimulus": 15, "trial": 1, "rt": 2258, "response": "Alpha"}, "0": {"stimulus": 57, "trial": 0, "rt": 3053, "response": "Beta"}, "3": {"stimulus": 44, "trial": 3, "rt": 2541, "response": "Beta"}, "2": {"stimulus": 26, "trial": 2, "rt": 2809, "response": "Beta"}, "5": {"stimulus": 58, "trial": 5, "rt": 1530, "response": "Beta"}, "4": {"stimulus": 37, "trial": 4, "rt": 1486, "response": "Beta"}, "7": {"stimulus": 30, "trial": 7, "rt": 10819, "response": "Beta"}, "6": {"stimulus": 7, "trial": 6, "rt": 1782, "response": "Alpha"}, "9": {"stimulus": 1, "trial": 9, "rt": 1258, "response": "Alpha"}, "8": {"stimulus": 29, "trial": 8, "rt": 4790, "response": "Beta"}, "78": {"stimulus": 46, "trial": 78, "rt": 1096, "response": "Beta"}, "51": {"stimulus": 54, "trial": 51, "rt": 852, "response": "Beta"}, "39": {"stimulus": 53, "trial": 39, "rt": 1487, "response": "Beta"}, "65": {"stimulus": 74, "trial": 65, "rt": 680, "response": "Alpha"}, "76": {"stimulus": 49, "trial": 76, "rt": 745, "response": "Beta"}, "75": {"stimulus": 22, "trial": 75, "rt": 1365, "response": "Beta"}, "38": {"stimulus": 63, "trial": 38, "rt": 2047, "response": "Beta"}, "73": {"stimulus": 17, "trial": 73, "rt": 1053, "response": "Alpha"}, "72": {"stimulus": 67, "trial": 72, "rt": 1312, "response": "Beta"}, "71": {"stimulus": 20, "trial": 71, "rt": 1604, "response": "Beta"}, "70": {"stimulus": 13, "trial": 70, "rt": 1407, "response": "Alpha"}, "59": {"stimulus": 36, "trial": 59, "rt": 888, "response": "Beta"}, "79": {"stimulus": 4, "trial": 79, "rt": 1308, "response": "Alpha"}, "58": {"stimulus": 43, "trial": 58, "rt": 1370, "response": "Beta"}, "11": {"stimulus": 71, "trial": 11, "rt": 1756, "response": "Beta"}, "10": {"stimulus": 75, "trial": 10, "rt": 1189, "response": "Alpha"}, "13": {"stimulus": 23, "trial": 13, "rt": 1977, "response": "Beta"}, "12": {"stimulus": 51, "trial": 12, "rt": 1150, "response": "Beta"}, "15": {"stimulus": 8, "trial": 15, "rt": 1061, "response": "Alpha"}, "14": {"stimulus": 21, "trial": 14, "rt": 5848, "response": "Beta"}, "17": {"stimulus": 25, "trial": 17, "rt": 1922, "response": "Beta"}, "16": {"stimulus": 9, "trial": 16, "rt": 1215, "response": "Alpha"}, "19": {"stimulus": 41, "trial": 19, "rt": 1400, "response": "Beta"}, "18": {"stimulus": 80, "trial": 18, "rt": 1198, "response": "Alpha"}, "31": {"stimulus": 11, "trial": 31, "rt": 2212, "response": "Alpha"}, "30": {"stimulus": 10, "trial": 30, "rt": 1229, "response": "Alpha"}, "37": {"stimulus": 65, "trial": 37, "rt": 1459, "response": "Beta"}, "36": {"stimulus": 45, "trial": 36, "rt": 1830, "response": "Beta"}, "35": {"stimulus": 76, "trial": 35, "rt": 1208, "response": "Alpha"}, "34": {"stimulus": 72, "trial": 34, "rt": 1516, "response": "Alpha"}, "33": {"stimulus": 2, "trial": 33, "rt": 1211, "response": "Alpha"}, "55": {"stimulus": 24, "trial": 55, "rt": 2501, "response": "Beta"}, "74": {"stimulus": 48, "trial": 74, "rt": 1534, "response": "Beta"}, "32": {"stimulus": 35, "trial": 32, "rt": 1668, "response": "Beta"}, "57": {"stimulus": 14, "trial": 57, "rt": 1220, "response": "Alpha"}, "50": {"stimulus": 38, "trial": 50, "rt": 890, "response": "Beta"}}, "experiment": {"Paradigm": "TACL", "Stimuli": "Size-Color Squares and Size-Orientation Circles", "Experiment": "Generating-Multiple-Categories"}, "submit": {"timeTotal": 515997, "age": "31", "comments": "", "sex": "Male"}}