{"info": {"finish": 1554507644392, "participant": 39, "exposed": true, "lab": false, "start": 1554505886139, "counterbalance": 7, "stimtype": "Squares", "gentype": 1, "condition": "Corner_S", "browser": {"platform": "Win32", "userAgent": "Mozilla/5.0 (Windows NT 6.1; Win64; x64) AppleWebKit/537.36 (KHTML, like Gecko) Chrome/73.0.3683.103 Safari/537.36"}}, "observation": {"11": {"stimulus": 0, "trial": 11, "rt": 2422}, "10": {"stimulus": 72, "trial": 10, "rt": 5350}, "1": {"stimulus": 8, "trial": 1, "rt": 6687}, "0": {"stimulus": 0, "trial": 0, "rt": 118845}, "3": {"stimulus": 80, "trial": 3, "rt": 129334}, "2": {"stimulus": 72, "trial": 2, "rt": 34968}, "5": {"stimulus": 8, "trial": 5, "rt": 2183}, "4": {"stimulus": 72, "trial": 4, "rt": 1934}, "7": {"stimulus": 80, "trial": 7, "rt": 1597}, "6": {"stimulus": 0, "trial": 6, "rt": 2159}, "9": {"stimulus": 80, "trial": 9, "rt": 1935}, "8": {"stimulus": 8, "trial": 8, "rt": 3231}}, "generation": {"1": {"category": "Beta", "trial": 1, "stimulus": 38, "rt": 6015}, "0": {"category": "Beta", "trial": 0, "stimulus": 20, "rt": 8157}, "3": {"category": "Beta", "trial": 3, "stimulus": 19, "rt": 2766}, "2": {"category": "Beta", "trial": 2, "stimulus": 11, "rt": 44903}}, "generalization": {"56": {"stimulus": 72, "trial": 56, "rt": 1070, "response": "Alpha"}, "77": {"stimulus": 41, "trial": 77, "rt": 11650, "response": "Alpha"}, "54": {"stimulus": 64, "trial": 54, "rt": 414, "response": "Beta"}, "42": {"stimulus": 5, "trial": 42, "rt": 8583, "response": "Alpha"}, "48": {"stimulus": 8, "trial": 48, "rt": 1264, "response": "Beta"}, "43": {"stimulus": 57, "trial": 43, "rt": 824, "response": "Alpha"}, "60": {"stimulus": 1, "trial": 60, "rt": 695, "response": "Alpha"}, "61": {"stimulus": 25, "trial": 61, "rt": 574, "response": "Beta"}, "62": {"stimulus": 65, "trial": 62, "rt": 774, "response": "Alpha"}, "63": {"stimulus": 26, "trial": 63, "rt": 414, "response": "Beta"}, "64": {"stimulus": 67, "trial": 64, "rt": 717, "response": "Alpha"}, "49": {"stimulus": 13, "trial": 49, "rt": 495, "response": "Beta"}, "66": {"stimulus": 75, "trial": 66, "rt": 862, "response": "Alpha"}, "67": {"stimulus": 6, "trial": 67, "rt": 462, "response": "Beta"}, "68": {"stimulus": 36, "trial": 68, "rt": 599, "response": "Alpha"}, "69": {"stimulus": 58, "trial": 69, "rt": 583, "response": "Beta"}, "80": {"stimulus": 0, "trial": 80, "rt": 1590, "response": "Alpha"}, "52": {"stimulus": 49, "trial": 52, "rt": 520, "response": "Beta"}, "53": {"stimulus": 62, "trial": 53, "rt": 391, "response": "Beta"}, "24": {"stimulus": 28, "trial": 24, "rt": 914, "response": "Alpha"}, "25": {"stimulus": 47, "trial": 25, "rt": 1638, "response": "Alpha"}, "26": {"stimulus": 69, "trial": 26, "rt": 1165, "response": "Beta"}, "27": {"stimulus": 17, "trial": 27, "rt": 751, "response": "Beta"}, "20": {"stimulus": 50, "trial": 20, "rt": 1078, "response": "Beta"}, "21": {"stimulus": 12, "trial": 21, "rt": 1198, "response": "Alpha"}, "22": {"stimulus": 3, "trial": 22, "rt": 982, "response": "Alpha"}, "23": {"stimulus": 27, "trial": 23, "rt": 1326, "response": "Alpha"}, "46": {"stimulus": 73, "trial": 46, "rt": 1542, "response": "Alpha"}, "47": {"stimulus": 68, "trial": 47, "rt": 7160, "response": "Alpha"}, "44": {"stimulus": 77, "trial": 44, "rt": 910, "response": "Beta"}, "45": {"stimulus": 78, "trial": 45, "rt": 926, "response": "Alpha"}, "28": {"stimulus": 30, "trial": 28, "rt": 790, "response": "Alpha"}, "29": {"stimulus": 71, "trial": 29, "rt": 911, "response": "Beta"}, "40": {"stimulus": 16, "trial": 40, "rt": 988, "response": "Beta"}, "41": {"stimulus": 43, "trial": 41, "rt": 1214, "response": "Alpha"}, "1": {"stimulus": 9, "trial": 1, "rt": 637, "response": "Beta"}, "0": {"stimulus": 48, "trial": 0, "rt": 1301, "response": "Alpha"}, "3": {"stimulus": 0, "trial": 3, "rt": 358, "response": "Beta"}, "2": {"stimulus": 18, "trial": 2, "rt": 406, "response": "Alpha"}, "5": {"stimulus": 29, "trial": 5, "rt": 1198, "response": "Beta"}, "4": {"stimulus": 40, "trial": 4, "rt": 775, "response": "Alpha"}, "7": {"stimulus": 74, "trial": 7, "rt": 374, "response": "Beta"}, "6": {"stimulus": 80, "trial": 6, "rt": 958, "response": "Beta"}, "9": {"stimulus": 45, "trial": 9, "rt": 399, "response": "Beta"}, "8": {"stimulus": 61, "trial": 8, "rt": 398, "response": "Alpha"}, "78": {"stimulus": 56, "trial": 78, "rt": 2820, "response": "Alpha"}, "51": {"stimulus": 59, "trial": 51, "rt": 782, "response": "Beta"}, "39": {"stimulus": 23, "trial": 39, "rt": 762, "response": "Beta"}, "65": {"stimulus": 34, "trial": 65, "rt": 358, "response": "Beta"}, "76": {"stimulus": 4, "trial": 76, "rt": 2303, "response": "Alpha"}, "75": {"stimulus": 15, "trial": 75, "rt": 855, "response": "Beta"}, "38": {"stimulus": 10, "trial": 38, "rt": 1126, "response": "Alpha"}, "73": {"stimulus": 66, "trial": 73, "rt": 1087, "response": "Alpha"}, "72": {"stimulus": 52, "trial": 72, "rt": 1334, "response": "Beta"}, "71": {"stimulus": 35, "trial": 71, "rt": 726, "response": "Beta"}, "70": {"stimulus": 37, "trial": 70, "rt": 823, "response": "Alpha"}, "59": {"stimulus": 24, "trial": 59, "rt": 966, "response": "Beta"}, "79": {"stimulus": 14, "trial": 79, "rt": 1069, "response": "Alpha"}, "58": {"stimulus": 38, "trial": 58, "rt": 431, "response": "Alpha"}, "11": {"stimulus": 76, "trial": 11, "rt": 790, "response": "Beta"}, "10": {"stimulus": 54, "trial": 10, "rt": 1006, "response": "Alpha"}, "13": {"stimulus": 31, "trial": 13, "rt": 664, "response": "Beta"}, "12": {"stimulus": 53, "trial": 12, "rt": 1012, "response": "Beta"}, "15": {"stimulus": 11, "trial": 15, "rt": 982, "response": "Alpha"}, "14": {"stimulus": 46, "trial": 14, "rt": 1182, "response": "Alpha"}, "17": {"stimulus": 70, "trial": 17, "rt": 679, "response": "Beta"}, "16": {"stimulus": 60, "trial": 16, "rt": 1006, "response": "Beta"}, "19": {"stimulus": 42, "trial": 19, "rt": 607, "response": "Beta"}, "18": {"stimulus": 44, "trial": 18, "rt": 662, "response": "Beta"}, "31": {"stimulus": 19, "trial": 31, "rt": 1197, "response": "Alpha"}, "30": {"stimulus": 55, "trial": 30, "rt": 678, "response": "Alpha"}, "37": {"stimulus": 21, "trial": 37, "rt": 1255, "response": "Beta"}, "36": {"stimulus": 2, "trial": 36, "rt": 5395, "response": "Alpha"}, "35": {"stimulus": 33, "trial": 35, "rt": 591, "response": "Beta"}, "34": {"stimulus": 22, "trial": 34, "rt": 935, "response": "Alpha"}, "33": {"stimulus": 51, "trial": 33, "rt": 846, "response": "Beta"}, "55": {"stimulus": 79, "trial": 55, "rt": 510, "response": "Beta"}, "74": {"stimulus": 63, "trial": 74, "rt": 758, "response": "Alpha"}, "32": {"stimulus": 32, "trial": 32, "rt": 846, "response": "Beta"}, "57": {"stimulus": 20, "trial": 57, "rt": 918, "response": "Alpha"}, "50": {"stimulus": 7, "trial": 50, "rt": 447, "response": "Beta"}}, "experiment": {"Paradigm": "TACL", "Stimuli": "Size-Color Squares and Size-Orientation Circles", "Experiment": "Generating-Multiple-Categories"}, "submit": {"timeTotal": 1759625, "age": "29", "comments": "good", "sex": "male"}}