{"info": {"finish": 1554506832948, "participant": 40, "exposed": true, "lab": false, "start": 1554506504454, "counterbalance": 4, "stimtype": "Squares", "gentype": 1, "condition": "Corner_S", "browser": {"platform": "Win32", "userAgent": "Mozilla/5.0 (Windows NT 10.0; Win64; x64) AppleWebKit/537.36 (KHTML, like Gecko) Chrome/73.0.3683.86 Safari/537.36"}}, "observation": {"11": {"stimulus": 80, "trial": 11, "rt": 1711}, "10": {"stimulus": 8, "trial": 10, "rt": 1671}, "1": {"stimulus": 80, "trial": 1, "rt": 5637}, "0": {"stimulus": 8, "trial": 0, "rt": 12492}, "3": {"stimulus": 72, "trial": 3, "rt": 2188}, "2": {"stimulus": 0, "trial": 2, "rt": 3867}, "5": {"stimulus": 8, "trial": 5, "rt": 2164}, "4": {"stimulus": 80, "trial": 4, "rt": 2449}, "7": {"stimulus": 0, "trial": 7, "rt": 1724}, "6": {"stimulus": 72, "trial": 6, "rt": 1912}, "9": {"stimulus": 0, "trial": 9, "rt": 2060}, "8": {"stimulus": 72, "trial": 8, "rt": 2694}}, "generation": {"1": {"category": "Beta", "trial": 1, "stimulus": 48, "rt": 21830}, "0": {"category": "Beta", "trial": 0, "stimulus": 49, "rt": 13975}, "3": {"category": "Beta", "trial": 3, "stimulus": 51, "rt": 5656}, "2": {"category": "Beta", "trial": 2, "stimulus": 50, "rt": 18551}}, "generalization": {"56": {"stimulus": 33, "trial": 56, "rt": 1022, "response": "Alpha"}, "77": {"stimulus": 43, "trial": 77, "rt": 1555, "response": "Alpha"}, "54": {"stimulus": 19, "trial": 54, "rt": 1060, "response": "Alpha"}, "42": {"stimulus": 16, "trial": 42, "rt": 1842, "response": "Alpha"}, "48": {"stimulus": 41, "trial": 48, "rt": 841, "response": "Beta"}, "43": {"stimulus": 1, "trial": 43, "rt": 826, "response": "Alpha"}, "60": {"stimulus": 75, "trial": 60, "rt": 1101, "response": "Beta"}, "61": {"stimulus": 3, "trial": 61, "rt": 1256, "response": "Beta"}, "62": {"stimulus": 48, "trial": 62, "rt": 1030, "response": "Beta"}, "63": {"stimulus": 34, "trial": 63, "rt": 1356, "response": "Alpha"}, "64": {"stimulus": 32, "trial": 64, "rt": 805, "response": "Alpha"}, "49": {"stimulus": 57, "trial": 49, "rt": 1467, "response": "Beta"}, "66": {"stimulus": 31, "trial": 66, "rt": 922, "response": "Beta"}, "67": {"stimulus": 47, "trial": 67, "rt": 1013, "response": "Alpha"}, "68": {"stimulus": 8, "trial": 68, "rt": 632, "response": "Alpha"}, "69": {"stimulus": 27, "trial": 69, "rt": 678, "response": "Alpha"}, "80": {"stimulus": 9, "trial": 80, "rt": 686, "response": "Alpha"}, "52": {"stimulus": 29, "trial": 52, "rt": 637, "response": "Alpha"}, "53": {"stimulus": 23, "trial": 53, "rt": 1289, "response": "Beta"}, "24": {"stimulus": 22, "trial": 24, "rt": 748, "response": "Beta"}, "25": {"stimulus": 28, "trial": 25, "rt": 981, "response": "Alpha"}, "26": {"stimulus": 45, "trial": 26, "rt": 646, "response": "Alpha"}, "27": {"stimulus": 25, "trial": 27, "rt": 2031, "response": "Alpha"}, "20": {"stimulus": 36, "trial": 20, "rt": 817, "response": "Alpha"}, "21": {"stimulus": 73, "trial": 21, "rt": 591, "response": "Alpha"}, "22": {"stimulus": 64, "trial": 22, "rt": 546, "response": "Alpha"}, "23": {"stimulus": 13, "trial": 23, "rt": 1559, "response": "Beta"}, "46": {"stimulus": 24, "trial": 46, "rt": 577, "response": "Alpha"}, "47": {"stimulus": 49, "trial": 47, "rt": 1172, "response": "Beta"}, "44": {"stimulus": 42, "trial": 44, "rt": 1201, "response": "Beta"}, "45": {"stimulus": 20, "trial": 45, "rt": 568, "response": "Alpha"}, "28": {"stimulus": 5, "trial": 28, "rt": 1412, "response": "Alpha"}, "29": {"stimulus": 37, "trial": 29, "rt": 708, "response": "Alpha"}, "40": {"stimulus": 46, "trial": 40, "rt": 921, "response": "Alpha"}, "41": {"stimulus": 11, "trial": 41, "rt": 622, "response": "Alpha"}, "1": {"stimulus": 7, "trial": 1, "rt": 1474, "response": "Alpha"}, "0": {"stimulus": 67, "trial": 0, "rt": 2312, "response": "Beta"}, "3": {"stimulus": 26, "trial": 3, "rt": 3374, "response": "Alpha"}, "2": {"stimulus": 38, "trial": 2, "rt": 1286, "response": "Alpha"}, "5": {"stimulus": 14, "trial": 5, "rt": 1093, "response": "Beta"}, "4": {"stimulus": 71, "trial": 4, "rt": 842, "response": "Alpha"}, "7": {"stimulus": 72, "trial": 7, "rt": 847, "response": "Alpha"}, "6": {"stimulus": 50, "trial": 6, "rt": 843, "response": "Beta"}, "9": {"stimulus": 21, "trial": 9, "rt": 1546, "response": "Beta"}, "8": {"stimulus": 68, "trial": 8, "rt": 1688, "response": "Beta"}, "78": {"stimulus": 0, "trial": 78, "rt": 835, "response": "Alpha"}, "51": {"stimulus": 53, "trial": 51, "rt": 1465, "response": "Alpha"}, "39": {"stimulus": 6, "trial": 39, "rt": 2070, "response": "Beta"}, "65": {"stimulus": 2, "trial": 65, "rt": 763, "response": "Alpha"}, "76": {"stimulus": 35, "trial": 76, "rt": 707, "response": "Alpha"}, "75": {"stimulus": 12, "trial": 75, "rt": 904, "response": "Alpha"}, "38": {"stimulus": 10, "trial": 38, "rt": 741, "response": "Alpha"}, "73": {"stimulus": 76, "trial": 73, "rt": 1038, "response": "Beta"}, "72": {"stimulus": 79, "trial": 72, "rt": 973, "response": "Alpha"}, "71": {"stimulus": 66, "trial": 71, "rt": 1139, "response": "Beta"}, "70": {"stimulus": 51, "trial": 70, "rt": 663, "response": "Alpha"}, "59": {"stimulus": 80, "trial": 59, "rt": 849, "response": "Alpha"}, "79": {"stimulus": 17, "trial": 79, "rt": 638, "response": "Alpha"}, "58": {"stimulus": 74, "trial": 58, "rt": 2366, "response": "Beta"}, "11": {"stimulus": 15, "trial": 11, "rt": 702, "response": "Alpha"}, "10": {"stimulus": 62, "trial": 10, "rt": 1331, "response": "Alpha"}, "13": {"stimulus": 78, "trial": 13, "rt": 1061, "response": "Beta"}, "12": {"stimulus": 58, "trial": 12, "rt": 2039, "response": "Beta"}, "15": {"stimulus": 52, "trial": 15, "rt": 789, "response": "Alpha"}, "14": {"stimulus": 60, "trial": 14, "rt": 2397, "response": "Alpha"}, "17": {"stimulus": 18, "trial": 17, "rt": 763, "response": "Alpha"}, "16": {"stimulus": 63, "trial": 16, "rt": 1485, "response": "Alpha"}, "19": {"stimulus": 69, "trial": 19, "rt": 1772, "response": "Alpha"}, "18": {"stimulus": 0, "trial": 18, "rt": 590, "response": "Alpha"}, "31": {"stimulus": 4, "trial": 31, "rt": 1167, "response": "Beta"}, "30": {"stimulus": 56, "trial": 30, "rt": 571, "response": "Alpha"}, "37": {"stimulus": 44, "trial": 37, "rt": 1171, "response": "Alpha"}, "36": {"stimulus": 40, "trial": 36, "rt": 1545, "response": "Beta"}, "35": {"stimulus": 55, "trial": 35, "rt": 608, "response": "Alpha"}, "34": {"stimulus": 70, "trial": 34, "rt": 1420, "response": "Alpha"}, "33": {"stimulus": 59, "trial": 33, "rt": 1435, "response": "Beta"}, "55": {"stimulus": 61, "trial": 55, "rt": 1569, "response": "Alpha"}, "74": {"stimulus": 65, "trial": 74, "rt": 1146, "response": "Alpha"}, "32": {"stimulus": 30, "trial": 32, "rt": 1656, "response": "Beta"}, "57": {"stimulus": 54, "trial": 57, "rt": 1076, "response": "Alpha"}, "50": {"stimulus": 77, "trial": 50, "rt": 772, "response": "Beta"}}, "experiment": {"Paradigm": "TACL", "Stimuli": "Size-Color Squares and Size-Orientation Circles", "Experiment": "Generating-Multiple-Categories"}, "submit": {"timeTotal": 328773, "age": "54", "comments": "Interesting!", "sex": "Female"}}