{"info": {"finish": 1554507242359, "participant": 41, "exposed": true, "lab": false, "start": 1554506829182, "counterbalance": 2, "stimtype": "Squares", "gentype": 1, "condition": "Corner_S", "browser": {"platform": "Win32", "userAgent": "Mozilla/5.0 (Windows NT 6.1) AppleWebKit/537.36 (KHTML, like Gecko) Chrome/73.0.3683.86 Safari/537.36"}}, "observation": {"11": {"stimulus": 72, "trial": 11, "rt": 9576}, "10": {"stimulus": 8, "trial": 10, "rt": 3042}, "1": {"stimulus": 8, "trial": 1, "rt": 1887}, "0": {"stimulus": 80, "trial": 0, "rt": 2636}, "3": {"stimulus": 72, "trial": 3, "rt": 1767}, "2": {"stimulus": 0, "trial": 2, "rt": 2390}, "5": {"stimulus": 80, "trial": 5, "rt": 8028}, "4": {"stimulus": 0, "trial": 4, "rt": 2768}, "7": {"stimulus": 72, "trial": 7, "rt": 4975}, "6": {"stimulus": 8, "trial": 6, "rt": 3999}, "9": {"stimulus": 80, "trial": 9, "rt": 3225}, "8": {"stimulus": 0, "trial": 8, "rt": 1831}}, "generation": {"1": {"category": "Beta", "trial": 1, "stimulus": 6, "rt": 12078}, "0": {"category": "Beta", "trial": 0, "stimulus": 49, "rt": 19021}, "3": {"category": "Beta", "trial": 3, "stimulus": 69, "rt": 5686}, "2": {"category": "Beta", "trial": 2, "stimulus": 58, "rt": 9976}}, "generalization": {"56": {"stimulus": 6, "trial": 56, "rt": 5209, "response": "Beta"}, "77": {"stimulus": 78, "trial": 77, "rt": 781, "response": "Alpha"}, "54": {"stimulus": 28, "trial": 54, "rt": 1191, "response": "Beta"}, "42": {"stimulus": 75, "trial": 42, "rt": 870, "response": "Alpha"}, "48": {"stimulus": 7, "trial": 48, "rt": 877, "response": "Alpha"}, "43": {"stimulus": 19, "trial": 43, "rt": 2838, "response": "Beta"}, "60": {"stimulus": 41, "trial": 60, "rt": 5374, "response": "Alpha"}, "61": {"stimulus": 8, "trial": 61, "rt": 20159, "response": "Beta"}, "62": {"stimulus": 38, "trial": 62, "rt": 56100, "response": "Alpha"}, "63": {"stimulus": 0, "trial": 63, "rt": 1239, "response": "Beta"}, "64": {"stimulus": 45, "trial": 64, "rt": 910, "response": "Alpha"}, "49": {"stimulus": 53, "trial": 49, "rt": 768, "response": "Alpha"}, "66": {"stimulus": 56, "trial": 66, "rt": 2095, "response": "Alpha"}, "67": {"stimulus": 10, "trial": 67, "rt": 1182, "response": "Beta"}, "68": {"stimulus": 79, "trial": 68, "rt": 823, "response": "Alpha"}, "69": {"stimulus": 47, "trial": 69, "rt": 559, "response": "Alpha"}, "80": {"stimulus": 49, "trial": 80, "rt": 190, "response": "Alpha"}, "52": {"stimulus": 2, "trial": 52, "rt": 487, "response": "Alpha"}, "53": {"stimulus": 17, "trial": 53, "rt": 1400, "response": "Beta"}, "24": {"stimulus": 44, "trial": 24, "rt": 1113, "response": "Alpha"}, "25": {"stimulus": 5, "trial": 25, "rt": 1605, "response": "Beta"}, "26": {"stimulus": 62, "trial": 26, "rt": 1054, "response": "Alpha"}, "27": {"stimulus": 36, "trial": 27, "rt": 1398, "response": "Alpha"}, "20": {"stimulus": 66, "trial": 20, "rt": 735, "response": "Alpha"}, "21": {"stimulus": 40, "trial": 21, "rt": 2343, "response": "Beta"}, "22": {"stimulus": 0, "trial": 22, "rt": 1191, "response": "Beta"}, "23": {"stimulus": 27, "trial": 23, "rt": 1599, "response": "Beta"}, "46": {"stimulus": 68, "trial": 46, "rt": 2071, "response": "Alpha"}, "47": {"stimulus": 70, "trial": 47, "rt": 1790, "response": "Alpha"}, "44": {"stimulus": 64, "trial": 44, "rt": 1248, "response": "Alpha"}, "45": {"stimulus": 59, "trial": 45, "rt": 823, "response": "Alpha"}, "28": {"stimulus": 23, "trial": 28, "rt": 5598, "response": "Alpha"}, "29": {"stimulus": 24, "trial": 29, "rt": 1117, "response": "Alpha"}, "40": {"stimulus": 21, "trial": 40, "rt": 7343, "response": "Alpha"}, "41": {"stimulus": 61, "trial": 41, "rt": 1257, "response": "Alpha"}, "1": {"stimulus": 54, "trial": 1, "rt": 3223, "response": "Alpha"}, "0": {"stimulus": 65, "trial": 0, "rt": 5730, "response": "Alpha"}, "3": {"stimulus": 37, "trial": 3, "rt": 1639, "response": "Beta"}, "2": {"stimulus": 3, "trial": 2, "rt": 855, "response": "Beta"}, "5": {"stimulus": 22, "trial": 5, "rt": 2079, "response": "Beta"}, "4": {"stimulus": 74, "trial": 4, "rt": 701, "response": "Alpha"}, "7": {"stimulus": 14, "trial": 7, "rt": 1905, "response": "Beta"}, "6": {"stimulus": 57, "trial": 6, "rt": 774, "response": "Alpha"}, "9": {"stimulus": 29, "trial": 9, "rt": 1127, "response": "Beta"}, "8": {"stimulus": 46, "trial": 8, "rt": 919, "response": "Alpha"}, "78": {"stimulus": 55, "trial": 78, "rt": 140, "response": "Alpha"}, "51": {"stimulus": 18, "trial": 51, "rt": 1188, "response": "Beta"}, "39": {"stimulus": 12, "trial": 39, "rt": 1407, "response": "Beta"}, "65": {"stimulus": 26, "trial": 65, "rt": 1247, "response": "Alpha"}, "76": {"stimulus": 80, "trial": 76, "rt": 831, "response": "Beta"}, "75": {"stimulus": 15, "trial": 75, "rt": 1295, "response": "Alpha"}, "38": {"stimulus": 60, "trial": 38, "rt": 821, "response": "Alpha"}, "73": {"stimulus": 20, "trial": 73, "rt": 1175, "response": "Beta"}, "72": {"stimulus": 71, "trial": 72, "rt": 926, "response": "Alpha"}, "71": {"stimulus": 51, "trial": 71, "rt": 840, "response": "Alpha"}, "70": {"stimulus": 32, "trial": 70, "rt": 1382, "response": "Alpha"}, "59": {"stimulus": 31, "trial": 59, "rt": 6398, "response": "Beta"}, "79": {"stimulus": 33, "trial": 79, "rt": 223, "response": "Alpha"}, "58": {"stimulus": 48, "trial": 58, "rt": 2151, "response": "Alpha"}, "11": {"stimulus": 42, "trial": 11, "rt": 806, "response": "Alpha"}, "10": {"stimulus": 11, "trial": 10, "rt": 2351, "response": "Beta"}, "13": {"stimulus": 43, "trial": 13, "rt": 806, "response": "Alpha"}, "12": {"stimulus": 34, "trial": 12, "rt": 1119, "response": "Alpha"}, "15": {"stimulus": 16, "trial": 15, "rt": 1191, "response": "Beta"}, "14": {"stimulus": 35, "trial": 14, "rt": 1343, "response": "Beta"}, "17": {"stimulus": 13, "trial": 17, "rt": 1478, "response": "Beta"}, "16": {"stimulus": 77, "trial": 16, "rt": 839, "response": "Alpha"}, "19": {"stimulus": 67, "trial": 19, "rt": 958, "response": "Alpha"}, "18": {"stimulus": 52, "trial": 18, "rt": 1470, "response": "Alpha"}, "31": {"stimulus": 76, "trial": 31, "rt": 988, "response": "Alpha"}, "30": {"stimulus": 73, "trial": 30, "rt": 881, "response": "Alpha"}, "37": {"stimulus": 9, "trial": 37, "rt": 1271, "response": "Beta"}, "36": {"stimulus": 50, "trial": 36, "rt": 3542, "response": "Alpha"}, "35": {"stimulus": 30, "trial": 35, "rt": 873, "response": "Alpha"}, "34": {"stimulus": 72, "trial": 34, "rt": 1007, "response": "Alpha"}, "33": {"stimulus": 4, "trial": 33, "rt": 2022, "response": "Beta"}, "55": {"stimulus": 1, "trial": 55, "rt": 1174, "response": "Beta"}, "74": {"stimulus": 63, "trial": 74, "rt": 718, "response": "Alpha"}, "32": {"stimulus": 58, "trial": 32, "rt": 4124, "response": "Alpha"}, "57": {"stimulus": 25, "trial": 57, "rt": 3926, "response": "Beta"}, "50": {"stimulus": 69, "trial": 50, "rt": 746, "response": "Alpha"}}, "experiment": {"Paradigm": "TACL", "Stimuli": "Size-Color Squares and Size-Orientation Circles", "Experiment": "Generating-Multiple-Categories"}, "submit": {"timeTotal": 414867, "age": "33", "comments": "I LIKE TO THIS EXPERIMENT.", "sex": "MALE"}}