{"info": {"finish": 1554507262183, "participant": 42, "exposed": true, "lab": false, "start": 1554506974069, "counterbalance": 1, "stimtype": "Squares", "gentype": 1, "condition": "Corner_S", "browser": {"platform": "Win32", "userAgent": "Mozilla/5.0 (Windows NT 10.0; Win64; x64) AppleWebKit/537.36 (KHTML, like Gecko) Chrome/73.0.3683.86 Safari/537.36"}}, "observation": {"11": {"stimulus": 72, "trial": 11, "rt": 1601}, "10": {"stimulus": 0, "trial": 10, "rt": 1692}, "1": {"stimulus": 8, "trial": 1, "rt": 2164}, "0": {"stimulus": 80, "trial": 0, "rt": 2991}, "3": {"stimulus": 0, "trial": 3, "rt": 1919}, "2": {"stimulus": 72, "trial": 2, "rt": 2119}, "5": {"stimulus": 8, "trial": 5, "rt": 2174}, "4": {"stimulus": 72, "trial": 4, "rt": 2102}, "7": {"stimulus": 0, "trial": 7, "rt": 1656}, "6": {"stimulus": 80, "trial": 6, "rt": 2074}, "9": {"stimulus": 80, "trial": 9, "rt": 1639}, "8": {"stimulus": 8, "trial": 8, "rt": 1673}}, "generation": {"1": {"category": "Beta", "trial": 1, "stimulus": 36, "rt": 8505}, "0": {"category": "Beta", "trial": 0, "stimulus": 43, "rt": 26490}, "3": {"category": "Beta", "trial": 3, "stimulus": 38, "rt": 8559}, "2": {"category": "Beta", "trial": 2, "stimulus": 44, "rt": 9796}}, "generalization": {"56": {"stimulus": 44, "trial": 56, "rt": 750, "response": "Beta"}, "77": {"stimulus": 0, "trial": 77, "rt": 642, "response": "Alpha"}, "54": {"stimulus": 32, "trial": 54, "rt": 665, "response": "Beta"}, "42": {"stimulus": 28, "trial": 42, "rt": 920, "response": "Beta"}, "48": {"stimulus": 1, "trial": 48, "rt": 826, "response": "Alpha"}, "43": {"stimulus": 4, "trial": 43, "rt": 877, "response": "Alpha"}, "60": {"stimulus": 56, "trial": 60, "rt": 915, "response": "Beta"}, "61": {"stimulus": 25, "trial": 61, "rt": 791, "response": "Beta"}, "62": {"stimulus": 31, "trial": 62, "rt": 667, "response": "Beta"}, "63": {"stimulus": 74, "trial": 63, "rt": 725, "response": "Alpha"}, "64": {"stimulus": 63, "trial": 64, "rt": 613, "response": "Alpha"}, "49": {"stimulus": 53, "trial": 49, "rt": 991, "response": "Beta"}, "66": {"stimulus": 36, "trial": 66, "rt": 643, "response": "Beta"}, "67": {"stimulus": 46, "trial": 67, "rt": 647, "response": "Beta"}, "68": {"stimulus": 60, "trial": 68, "rt": 944, "response": "Beta"}, "69": {"stimulus": 14, "trial": 69, "rt": 892, "response": "Beta"}, "80": {"stimulus": 73, "trial": 80, "rt": 809, "response": "Alpha"}, "52": {"stimulus": 16, "trial": 52, "rt": 867, "response": "Beta"}, "53": {"stimulus": 3, "trial": 53, "rt": 585, "response": "Beta"}, "24": {"stimulus": 7, "trial": 24, "rt": 793, "response": "Alpha"}, "25": {"stimulus": 10, "trial": 25, "rt": 795, "response": "Beta"}, "26": {"stimulus": 24, "trial": 26, "rt": 680, "response": "Beta"}, "27": {"stimulus": 6, "trial": 27, "rt": 1043, "response": "Alpha"}, "20": {"stimulus": 76, "trial": 20, "rt": 955, "response": "Alpha"}, "21": {"stimulus": 45, "trial": 21, "rt": 777, "response": "Beta"}, "22": {"stimulus": 35, "trial": 22, "rt": 1073, "response": "Beta"}, "23": {"stimulus": 26, "trial": 23, "rt": 773, "response": "Beta"}, "46": {"stimulus": 8, "trial": 46, "rt": 785, "response": "Alpha"}, "47": {"stimulus": 17, "trial": 47, "rt": 738, "response": "Beta"}, "44": {"stimulus": 21, "trial": 44, "rt": 637, "response": "Beta"}, "45": {"stimulus": 2, "trial": 45, "rt": 761, "response": "Alpha"}, "28": {"stimulus": 37, "trial": 28, "rt": 794, "response": "Beta"}, "29": {"stimulus": 11, "trial": 29, "rt": 954, "response": "Beta"}, "40": {"stimulus": 48, "trial": 40, "rt": 742, "response": "Beta"}, "41": {"stimulus": 78, "trial": 41, "rt": 768, "response": "Alpha"}, "1": {"stimulus": 79, "trial": 1, "rt": 959, "response": "Alpha"}, "0": {"stimulus": 12, "trial": 0, "rt": 1459, "response": "Alpha"}, "3": {"stimulus": 34, "trial": 3, "rt": 1336, "response": "Beta"}, "2": {"stimulus": 61, "trial": 2, "rt": 1078, "response": "Beta"}, "5": {"stimulus": 62, "trial": 5, "rt": 1437, "response": "Alpha"}, "4": {"stimulus": 77, "trial": 4, "rt": 893, "response": "Alpha"}, "7": {"stimulus": 29, "trial": 7, "rt": 1177, "response": "Alpha"}, "6": {"stimulus": 51, "trial": 6, "rt": 1067, "response": "Beta"}, "9": {"stimulus": 55, "trial": 9, "rt": 916, "response": "Beta"}, "8": {"stimulus": 71, "trial": 8, "rt": 1082, "response": "Alpha"}, "78": {"stimulus": 49, "trial": 78, "rt": 772, "response": "Beta"}, "51": {"stimulus": 65, "trial": 51, "rt": 660, "response": "Alpha"}, "39": {"stimulus": 75, "trial": 39, "rt": 741, "response": "Alpha"}, "65": {"stimulus": 54, "trial": 65, "rt": 898, "response": "Beta"}, "76": {"stimulus": 66, "trial": 76, "rt": 828, "response": "Alpha"}, "75": {"stimulus": 42, "trial": 75, "rt": 703, "response": "Beta"}, "38": {"stimulus": 69, "trial": 38, "rt": 864, "response": "Alpha"}, "73": {"stimulus": 50, "trial": 73, "rt": 679, "response": "Beta"}, "72": {"stimulus": 23, "trial": 72, "rt": 750, "response": "Beta"}, "71": {"stimulus": 67, "trial": 71, "rt": 763, "response": "Alpha"}, "70": {"stimulus": 43, "trial": 70, "rt": 717, "response": "Beta"}, "59": {"stimulus": 22, "trial": 59, "rt": 765, "response": "Beta"}, "79": {"stimulus": 33, "trial": 79, "rt": 705, "response": "Beta"}, "58": {"stimulus": 40, "trial": 58, "rt": 866, "response": "Beta"}, "11": {"stimulus": 68, "trial": 11, "rt": 1072, "response": "Alpha"}, "10": {"stimulus": 5, "trial": 10, "rt": 1062, "response": "Alpha"}, "13": {"stimulus": 30, "trial": 13, "rt": 1333, "response": "Beta"}, "12": {"stimulus": 52, "trial": 12, "rt": 767, "response": "Beta"}, "15": {"stimulus": 18, "trial": 15, "rt": 902, "response": "Beta"}, "14": {"stimulus": 9, "trial": 14, "rt": 1740, "response": "Alpha"}, "17": {"stimulus": 19, "trial": 17, "rt": 1228, "response": "Beta"}, "16": {"stimulus": 72, "trial": 16, "rt": 879, "response": "Alpha"}, "19": {"stimulus": 20, "trial": 19, "rt": 1451, "response": "Beta"}, "18": {"stimulus": 59, "trial": 18, "rt": 1320, "response": "Beta"}, "31": {"stimulus": 47, "trial": 31, "rt": 833, "response": "Beta"}, "30": {"stimulus": 15, "trial": 30, "rt": 712, "response": "Beta"}, "37": {"stimulus": 70, "trial": 37, "rt": 852, "response": "Alpha"}, "36": {"stimulus": 41, "trial": 36, "rt": 790, "response": "Beta"}, "35": {"stimulus": 0, "trial": 35, "rt": 966, "response": "Alpha"}, "34": {"stimulus": 80, "trial": 34, "rt": 731, "response": "Alpha"}, "33": {"stimulus": 27, "trial": 33, "rt": 818, "response": "Beta"}, "55": {"stimulus": 38, "trial": 55, "rt": 622, "response": "Beta"}, "74": {"stimulus": 13, "trial": 74, "rt": 722, "response": "Beta"}, "32": {"stimulus": 57, "trial": 32, "rt": 1325, "response": "Beta"}, "57": {"stimulus": 64, "trial": 57, "rt": 934, "response": "Alpha"}, "50": {"stimulus": 58, "trial": 50, "rt": 1152, "response": "Beta"}}, "experiment": {"Paradigm": "TACL", "Stimuli": "Size-Color Squares and Size-Orientation Circles", "Experiment": "Generating-Multiple-Categories"}, "submit": {"timeTotal": 288303, "age": "35", "comments": "I thought it was interesting trying to guess what would make something beta without any other information.", "sex": "Female"}}