{"info": {"finish": 1554509254831, "participant": 44, "exposed": true, "lab": false, "start": 1554508953224, "counterbalance": 6, "stimtype": "Circles", "gentype": 1, "condition": "Corner_C", "browser": {"platform": "Win32", "userAgent": "Mozilla/5.0 (Windows NT 10.0; Win64; x64) AppleWebKit/537.36 (KHTML, like Gecko) Chrome/72.0.3626.121 Safari/537.36"}}, "observation": {"11": {"stimulus": 80, "trial": 11, "rt": 1202}, "10": {"stimulus": 72, "trial": 10, "rt": 1467}, "1": {"stimulus": 72, "trial": 1, "rt": 2016}, "0": {"stimulus": 80, "trial": 0, "rt": 4097}, "3": {"stimulus": 8, "trial": 3, "rt": 1498}, "2": {"stimulus": 0, "trial": 2, "rt": 1757}, "5": {"stimulus": 8, "trial": 5, "rt": 1698}, "4": {"stimulus": 0, "trial": 4, "rt": 1613}, "7": {"stimulus": 72, "trial": 7, "rt": 1080}, "6": {"stimulus": 80, "trial": 6, "rt": 1083}, "9": {"stimulus": 0, "trial": 9, "rt": 1144}, "8": {"stimulus": 8, "trial": 8, "rt": 1155}}, "generation": {"1": {"category": "Beta", "trial": 1, "stimulus": 67, "rt": 5286}, "0": {"category": "Beta", "trial": 0, "stimulus": 60, "rt": 10568}, "3": {"category": "Beta", "trial": 3, "stimulus": 16, "rt": 7570}, "2": {"category": "Beta", "trial": 2, "stimulus": 77, "rt": 11332}}, "generalization": {"56": {"stimulus": 26, "trial": 56, "rt": 754, "response": "Alpha"}, "77": {"stimulus": 22, "trial": 77, "rt": 736, "response": "Beta"}, "54": {"stimulus": 19, "trial": 54, "rt": 991, "response": "Alpha"}, "42": {"stimulus": 31, "trial": 42, "rt": 761, "response": "Beta"}, "48": {"stimulus": 17, "trial": 48, "rt": 567, "response": "Alpha"}, "43": {"stimulus": 42, "trial": 43, "rt": 1234, "response": "Beta"}, "60": {"stimulus": 58, "trial": 60, "rt": 952, "response": "Beta"}, "61": {"stimulus": 67, "trial": 61, "rt": 504, "response": "Beta"}, "62": {"stimulus": 15, "trial": 62, "rt": 5587, "response": "Beta"}, "63": {"stimulus": 69, "trial": 63, "rt": 777, "response": "Beta"}, "64": {"stimulus": 50, "trial": 64, "rt": 826, "response": "Beta"}, "49": {"stimulus": 64, "trial": 49, "rt": 590, "response": "Alpha"}, "66": {"stimulus": 3, "trial": 66, "rt": 819, "response": "Alpha"}, "67": {"stimulus": 80, "trial": 67, "rt": 711, "response": "Alpha"}, "68": {"stimulus": 12, "trial": 68, "rt": 971, "response": "Alpha"}, "69": {"stimulus": 73, "trial": 69, "rt": 576, "response": "Alpha"}, "80": {"stimulus": 45, "trial": 80, "rt": 786, "response": "Alpha"}, "52": {"stimulus": 5, "trial": 52, "rt": 589, "response": "Beta"}, "53": {"stimulus": 68, "trial": 53, "rt": 616, "response": "Beta"}, "24": {"stimulus": 18, "trial": 24, "rt": 883, "response": "Alpha"}, "25": {"stimulus": 4, "trial": 25, "rt": 659, "response": "Beta"}, "26": {"stimulus": 52, "trial": 26, "rt": 678, "response": "Beta"}, "27": {"stimulus": 16, "trial": 27, "rt": 614, "response": "Beta"}, "20": {"stimulus": 76, "trial": 20, "rt": 1107, "response": "Beta"}, "21": {"stimulus": 13, "trial": 21, "rt": 695, "response": "Beta"}, "22": {"stimulus": 53, "trial": 22, "rt": 1050, "response": "Alpha"}, "23": {"stimulus": 41, "trial": 23, "rt": 537, "response": "Beta"}, "46": {"stimulus": 47, "trial": 46, "rt": 813, "response": "Alpha"}, "47": {"stimulus": 8, "trial": 47, "rt": 1269, "response": "Alpha"}, "44": {"stimulus": 32, "trial": 44, "rt": 712, "response": "Beta"}, "45": {"stimulus": 36, "trial": 45, "rt": 1371, "response": "Alpha"}, "28": {"stimulus": 43, "trial": 28, "rt": 673, "response": "Beta"}, "29": {"stimulus": 40, "trial": 29, "rt": 864, "response": "Beta"}, "40": {"stimulus": 48, "trial": 40, "rt": 861, "response": "Alpha"}, "41": {"stimulus": 44, "trial": 41, "rt": 1979, "response": "Alpha"}, "1": {"stimulus": 6, "trial": 1, "rt": 966, "response": "Beta"}, "0": {"stimulus": 65, "trial": 0, "rt": 1971, "response": "Alpha"}, "3": {"stimulus": 49, "trial": 3, "rt": 716, "response": "Beta"}, "2": {"stimulus": 62, "trial": 2, "rt": 816, "response": "Alpha"}, "5": {"stimulus": 27, "trial": 5, "rt": 716, "response": "Alpha"}, "4": {"stimulus": 77, "trial": 4, "rt": 816, "response": "Beta"}, "7": {"stimulus": 30, "trial": 7, "rt": 1034, "response": "Alpha"}, "6": {"stimulus": 2, "trial": 6, "rt": 570, "response": "Alpha"}, "9": {"stimulus": 51, "trial": 9, "rt": 924, "response": "Beta"}, "8": {"stimulus": 55, "trial": 8, "rt": 905, "response": "Alpha"}, "78": {"stimulus": 54, "trial": 78, "rt": 818, "response": "Alpha"}, "51": {"stimulus": 60, "trial": 51, "rt": 632, "response": "Beta"}, "39": {"stimulus": 75, "trial": 39, "rt": 738, "response": "Alpha"}, "65": {"stimulus": 9, "trial": 65, "rt": 1197, "response": "Alpha"}, "76": {"stimulus": 29, "trial": 76, "rt": 577, "response": "Alpha"}, "75": {"stimulus": 57, "trial": 75, "rt": 831, "response": "Alpha"}, "38": {"stimulus": 66, "trial": 38, "rt": 1006, "response": "Alpha"}, "73": {"stimulus": 11, "trial": 73, "rt": 654, "response": "Alpha"}, "72": {"stimulus": 0, "trial": 72, "rt": 574, "response": "Alpha"}, "71": {"stimulus": 74, "trial": 71, "rt": 855, "response": "Alpha"}, "70": {"stimulus": 34, "trial": 70, "rt": 1623, "response": "Beta"}, "59": {"stimulus": 79, "trial": 59, "rt": 638, "response": "Beta"}, "79": {"stimulus": 28, "trial": 79, "rt": 535, "response": "Alpha"}, "58": {"stimulus": 23, "trial": 58, "rt": 956, "response": "Beta"}, "11": {"stimulus": 37, "trial": 11, "rt": 728, "response": "Alpha"}, "10": {"stimulus": 33, "trial": 10, "rt": 2249, "response": "Beta"}, "13": {"stimulus": 63, "trial": 13, "rt": 604, "response": "Alpha"}, "12": {"stimulus": 0, "trial": 12, "rt": 866, "response": "Alpha"}, "15": {"stimulus": 25, "trial": 15, "rt": 976, "response": "Beta"}, "14": {"stimulus": 46, "trial": 14, "rt": 1175, "response": "Alpha"}, "17": {"stimulus": 71, "trial": 17, "rt": 1135, "response": "Alpha"}, "16": {"stimulus": 70, "trial": 16, "rt": 1068, "response": "Beta"}, "19": {"stimulus": 35, "trial": 19, "rt": 904, "response": "Alpha"}, "18": {"stimulus": 1, "trial": 18, "rt": 911, "response": "Alpha"}, "31": {"stimulus": 56, "trial": 31, "rt": 1026, "response": "Alpha"}, "30": {"stimulus": 61, "trial": 30, "rt": 610, "response": "Beta"}, "37": {"stimulus": 14, "trial": 37, "rt": 842, "response": "Beta"}, "36": {"stimulus": 38, "trial": 36, "rt": 734, "response": "Alpha"}, "35": {"stimulus": 72, "trial": 35, "rt": 1260, "response": "Alpha"}, "34": {"stimulus": 78, "trial": 34, "rt": 673, "response": "Beta"}, "33": {"stimulus": 59, "trial": 33, "rt": 1648, "response": "Beta"}, "55": {"stimulus": 21, "trial": 55, "rt": 540, "response": "Alpha"}, "74": {"stimulus": 7, "trial": 74, "rt": 908, "response": "Beta"}, "32": {"stimulus": 20, "trial": 32, "rt": 1285, "response": "Alpha"}, "57": {"stimulus": 10, "trial": 57, "rt": 523, "response": "Alpha"}, "50": {"stimulus": 24, "trial": 50, "rt": 839, "response": "Beta"}}, "experiment": {"Paradigm": "TACL", "Stimuli": "Size-Color Squares and Size-Orientation Circles", "Experiment": "Generating-Multiple-Categories"}, "submit": {"timeTotal": 302060, "age": "28", "comments": "what is the point? so generic and boring", "sex": "male"}}