{"info": {"finish": 1554509686797, "participant": 45, "exposed": true, "lab": false, "start": 1554509424467, "counterbalance": 4, "stimtype": "Circles", "gentype": 1, "condition": "Corner_C", "browser": {"platform": "MacIntel", "userAgent": "Mozilla/5.0 (Macintosh; Intel Mac OS X 10_13_6) AppleWebKit/605.1.15 (KHTML, like Gecko) Version/11.1.2 Safari/605.1.15"}}, "observation": {"11": {"stimulus": 80, "trial": 11, "rt": 1489}, "10": {"stimulus": 0, "trial": 10, "rt": 1473}, "1": {"stimulus": 0, "trial": 1, "rt": 2119}, "0": {"stimulus": 72, "trial": 0, "rt": 4246}, "3": {"stimulus": 8, "trial": 3, "rt": 1456}, "2": {"stimulus": 80, "trial": 2, "rt": 2072}, "5": {"stimulus": 72, "trial": 5, "rt": 1665}, "4": {"stimulus": 80, "trial": 4, "rt": 1602}, "7": {"stimulus": 8, "trial": 7, "rt": 1705}, "6": {"stimulus": 0, "trial": 6, "rt": 2080}, "9": {"stimulus": 8, "trial": 9, "rt": 1489}, "8": {"stimulus": 72, "trial": 8, "rt": 1906}}, "generation": {"1": {"category": "Beta", "trial": 1, "stimulus": 68, "rt": 8634}, "0": {"category": "Beta", "trial": 0, "stimulus": 58, "rt": 15005}, "3": {"category": "Beta", "trial": 3, "stimulus": 52, "rt": 8280}, "2": {"category": "Beta", "trial": 2, "stimulus": 79, "rt": 5087}}, "generalization": {"56": {"stimulus": 44, "trial": 56, "rt": 602, "response": "Alpha"}, "77": {"stimulus": 22, "trial": 77, "rt": 681, "response": "Beta"}, "54": {"stimulus": 41, "trial": 54, "rt": 897, "response": "Beta"}, "42": {"stimulus": 21, "trial": 42, "rt": 658, "response": "Alpha"}, "48": {"stimulus": 38, "trial": 48, "rt": 673, "response": "Alpha"}, "43": {"stimulus": 61, "trial": 43, "rt": 714, "response": "Beta"}, "60": {"stimulus": 49, "trial": 60, "rt": 538, "response": "Beta"}, "61": {"stimulus": 70, "trial": 61, "rt": 498, "response": "Beta"}, "62": {"stimulus": 34, "trial": 62, "rt": 458, "response": "Beta"}, "63": {"stimulus": 8, "trial": 63, "rt": 914, "response": "Alpha"}, "64": {"stimulus": 56, "trial": 64, "rt": 522, "response": "Alpha"}, "49": {"stimulus": 75, "trial": 49, "rt": 610, "response": "Alpha"}, "66": {"stimulus": 42, "trial": 66, "rt": 740, "response": "Beta"}, "67": {"stimulus": 45, "trial": 67, "rt": 506, "response": "Alpha"}, "68": {"stimulus": 29, "trial": 68, "rt": 514, "response": "Alpha"}, "69": {"stimulus": 26, "trial": 69, "rt": 546, "response": "Alpha"}, "80": {"stimulus": 46, "trial": 80, "rt": 553, "response": "Alpha"}, "52": {"stimulus": 47, "trial": 52, "rt": 1050, "response": "Alpha"}, "53": {"stimulus": 1, "trial": 53, "rt": 730, "response": "Alpha"}, "24": {"stimulus": 37, "trial": 24, "rt": 594, "response": "Alpha"}, "25": {"stimulus": 65, "trial": 25, "rt": 627, "response": "Alpha"}, "26": {"stimulus": 20, "trial": 26, "rt": 651, "response": "Alpha"}, "27": {"stimulus": 18, "trial": 27, "rt": 817, "response": "Alpha"}, "20": {"stimulus": 12, "trial": 20, "rt": 777, "response": "Alpha"}, "21": {"stimulus": 40, "trial": 21, "rt": 763, "response": "Beta"}, "22": {"stimulus": 0, "trial": 22, "rt": 697, "response": "Alpha"}, "23": {"stimulus": 10, "trial": 23, "rt": 594, "response": "Alpha"}, "46": {"stimulus": 52, "trial": 46, "rt": 689, "response": "Beta"}, "47": {"stimulus": 67, "trial": 47, "rt": 834, "response": "Beta"}, "44": {"stimulus": 5, "trial": 44, "rt": 921, "response": "Beta"}, "45": {"stimulus": 14, "trial": 45, "rt": 667, "response": "Beta"}, "28": {"stimulus": 2, "trial": 28, "rt": 850, "response": "Alpha"}, "29": {"stimulus": 31, "trial": 29, "rt": 1713, "response": "Beta"}, "40": {"stimulus": 28, "trial": 40, "rt": 611, "response": "Alpha"}, "41": {"stimulus": 77, "trial": 41, "rt": 682, "response": "Beta"}, "1": {"stimulus": 24, "trial": 1, "rt": 1034, "response": "Beta"}, "0": {"stimulus": 54, "trial": 0, "rt": 1752, "response": "Alpha"}, "3": {"stimulus": 69, "trial": 3, "rt": 915, "response": "Beta"}, "2": {"stimulus": 68, "trial": 2, "rt": 850, "response": "Beta"}, "5": {"stimulus": 76, "trial": 5, "rt": 809, "response": "Beta"}, "4": {"stimulus": 6, "trial": 4, "rt": 784, "response": "Beta"}, "7": {"stimulus": 73, "trial": 7, "rt": 850, "response": "Alpha"}, "6": {"stimulus": 55, "trial": 6, "rt": 954, "response": "Alpha"}, "9": {"stimulus": 25, "trial": 9, "rt": 897, "response": "Beta"}, "8": {"stimulus": 36, "trial": 8, "rt": 714, "response": "Alpha"}, "78": {"stimulus": 63, "trial": 78, "rt": 529, "response": "Alpha"}, "51": {"stimulus": 71, "trial": 51, "rt": 2346, "response": "Alpha"}, "39": {"stimulus": 78, "trial": 39, "rt": 690, "response": "Beta"}, "65": {"stimulus": 66, "trial": 65, "rt": 506, "response": "Alpha"}, "76": {"stimulus": 17, "trial": 76, "rt": 537, "response": "Alpha"}, "75": {"stimulus": 64, "trial": 75, "rt": 537, "response": "Alpha"}, "38": {"stimulus": 80, "trial": 38, "rt": 673, "response": "Alpha"}, "73": {"stimulus": 11, "trial": 73, "rt": 577, "response": "Alpha"}, "72": {"stimulus": 23, "trial": 72, "rt": 738, "response": "Beta"}, "71": {"stimulus": 74, "trial": 71, "rt": 562, "response": "Alpha"}, "70": {"stimulus": 3, "trial": 70, "rt": 593, "response": "Alpha"}, "59": {"stimulus": 16, "trial": 59, "rt": 482, "response": "Beta"}, "79": {"stimulus": 59, "trial": 79, "rt": 657, "response": "Beta"}, "58": {"stimulus": 79, "trial": 58, "rt": 777, "response": "Beta"}, "11": {"stimulus": 19, "trial": 11, "rt": 785, "response": "Alpha"}, "10": {"stimulus": 48, "trial": 10, "rt": 969, "response": "Alpha"}, "13": {"stimulus": 13, "trial": 13, "rt": 778, "response": "Beta"}, "12": {"stimulus": 15, "trial": 12, "rt": 793, "response": "Beta"}, "15": {"stimulus": 33, "trial": 15, "rt": 721, "response": "Beta"}, "14": {"stimulus": 27, "trial": 14, "rt": 985, "response": "Alpha"}, "17": {"stimulus": 43, "trial": 17, "rt": 689, "response": "Beta"}, "16": {"stimulus": 72, "trial": 16, "rt": 818, "response": "Alpha"}, "19": {"stimulus": 50, "trial": 19, "rt": 734, "response": "Beta"}, "18": {"stimulus": 7, "trial": 18, "rt": 676, "response": "Beta"}, "31": {"stimulus": 51, "trial": 31, "rt": 729, "response": "Beta"}, "30": {"stimulus": 62, "trial": 30, "rt": 897, "response": "Alpha"}, "37": {"stimulus": 35, "trial": 37, "rt": 665, "response": "Alpha"}, "36": {"stimulus": 58, "trial": 36, "rt": 649, "response": "Beta"}, "35": {"stimulus": 9, "trial": 35, "rt": 569, "response": "Alpha"}, "34": {"stimulus": 57, "trial": 34, "rt": 818, "response": "Alpha"}, "33": {"stimulus": 60, "trial": 33, "rt": 544, "response": "Beta"}, "55": {"stimulus": 0, "trial": 55, "rt": 690, "response": "Alpha"}, "74": {"stimulus": 32, "trial": 74, "rt": 681, "response": "Beta"}, "32": {"stimulus": 4, "trial": 32, "rt": 578, "response": "Beta"}, "57": {"stimulus": 30, "trial": 57, "rt": 643, "response": "Alpha"}, "50": {"stimulus": 53, "trial": 50, "rt": 505, "response": "Alpha"}}, "experiment": {"Paradigm": "TACL", "Stimuli": "Size-Color Squares and Size-Orientation Circles", "Experiment": "Generating-Multiple-Categories"}, "submit": {"timeTotal": 262731, "age": "27", "comments": "n/a", "sex": "female"}}