{"info": {"finish": 1554509751535, "participant": 46, "exposed": true, "lab": false, "start": 1554509425513, "counterbalance": 5, "stimtype": "Squares", "gentype": 1, "condition": "Corner_S", "browser": {"platform": "Win32", "userAgent": "Mozilla/5.0 (Windows NT 10.0; Win64; x64) AppleWebKit/537.36 (KHTML, like Gecko) Chrome/73.0.3683.86 Safari/537.36"}}, "observation": {"11": {"stimulus": 80, "trial": 11, "rt": 1332}, "10": {"stimulus": 8, "trial": 10, "rt": 1506}, "1": {"stimulus": 72, "trial": 1, "rt": 1942}, "0": {"stimulus": 80, "trial": 0, "rt": 47553}, "3": {"stimulus": 8, "trial": 3, "rt": 1498}, "2": {"stimulus": 0, "trial": 2, "rt": 2059}, "5": {"stimulus": 0, "trial": 5, "rt": 2069}, "4": {"stimulus": 8, "trial": 4, "rt": 1841}, "7": {"stimulus": 80, "trial": 7, "rt": 1857}, "6": {"stimulus": 72, "trial": 6, "rt": 2081}, "9": {"stimulus": 72, "trial": 9, "rt": 2247}, "8": {"stimulus": 0, "trial": 8, "rt": 8867}}, "generation": {"1": {"category": "Beta", "trial": 1, "stimulus": 1, "rt": 7351}, "0": {"category": "Beta", "trial": 0, "stimulus": 0, "rt": 16839}, "3": {"category": "Beta", "trial": 3, "stimulus": 4, "rt": 4011}, "2": {"category": "Beta", "trial": 2, "stimulus": 2, "rt": 6639}}, "generalization": {"56": {"stimulus": 44, "trial": 56, "rt": 1278, "response": "Alpha"}, "77": {"stimulus": 56, "trial": 77, "rt": 547, "response": "Alpha"}, "54": {"stimulus": 46, "trial": 54, "rt": 1139, "response": "Alpha"}, "42": {"stimulus": 50, "trial": 42, "rt": 1168, "response": "Alpha"}, "48": {"stimulus": 45, "trial": 48, "rt": 1277, "response": "Alpha"}, "43": {"stimulus": 54, "trial": 43, "rt": 1009, "response": "Alpha"}, "60": {"stimulus": 74, "trial": 60, "rt": 1529, "response": "Alpha"}, "61": {"stimulus": 18, "trial": 61, "rt": 1585, "response": "Beta"}, "62": {"stimulus": 21, "trial": 62, "rt": 1182, "response": "Beta"}, "63": {"stimulus": 55, "trial": 63, "rt": 791, "response": "Alpha"}, "64": {"stimulus": 42, "trial": 64, "rt": 876, "response": "Alpha"}, "49": {"stimulus": 63, "trial": 49, "rt": 1350, "response": "Alpha"}, "66": {"stimulus": 59, "trial": 66, "rt": 929, "response": "Alpha"}, "67": {"stimulus": 69, "trial": 67, "rt": 1044, "response": "Alpha"}, "68": {"stimulus": 80, "trial": 68, "rt": 1253, "response": "Alpha"}, "69": {"stimulus": 41, "trial": 69, "rt": 1044, "response": "Alpha"}, "80": {"stimulus": 7, "trial": 80, "rt": 719, "response": "Beta"}, "52": {"stimulus": 6, "trial": 52, "rt": 1029, "response": "Beta"}, "53": {"stimulus": 73, "trial": 53, "rt": 1649, "response": "Alpha"}, "24": {"stimulus": 53, "trial": 24, "rt": 1082, "response": "Alpha"}, "25": {"stimulus": 36, "trial": 25, "rt": 769, "response": "Alpha"}, "26": {"stimulus": 34, "trial": 26, "rt": 1047, "response": "Alpha"}, "27": {"stimulus": 67, "trial": 27, "rt": 694, "response": "Alpha"}, "20": {"stimulus": 40, "trial": 20, "rt": 1051, "response": "Beta"}, "21": {"stimulus": 49, "trial": 21, "rt": 594, "response": "Alpha"}, "22": {"stimulus": 5, "trial": 22, "rt": 870, "response": "Beta"}, "23": {"stimulus": 62, "trial": 23, "rt": 1051, "response": "Alpha"}, "46": {"stimulus": 68, "trial": 46, "rt": 799, "response": "Alpha"}, "47": {"stimulus": 3, "trial": 47, "rt": 1406, "response": "Beta"}, "44": {"stimulus": 26, "trial": 44, "rt": 1556, "response": "Beta"}, "45": {"stimulus": 29, "trial": 45, "rt": 1406, "response": "Alpha"}, "28": {"stimulus": 76, "trial": 28, "rt": 740, "response": "Alpha"}, "29": {"stimulus": 32, "trial": 29, "rt": 2111, "response": "Beta"}, "40": {"stimulus": 0, "trial": 40, "rt": 1343, "response": "Beta"}, "41": {"stimulus": 60, "trial": 41, "rt": 2485, "response": "Alpha"}, "1": {"stimulus": 28, "trial": 1, "rt": 920, "response": "Alpha"}, "0": {"stimulus": 47, "trial": 0, "rt": 1445, "response": "Alpha"}, "3": {"stimulus": 15, "trial": 3, "rt": 1645, "response": "Beta"}, "2": {"stimulus": 4, "trial": 2, "rt": 1250, "response": "Beta"}, "5": {"stimulus": 48, "trial": 5, "rt": 1037, "response": "Alpha"}, "4": {"stimulus": 79, "trial": 4, "rt": 735, "response": "Alpha"}, "7": {"stimulus": 24, "trial": 7, "rt": 1657, "response": "Beta"}, "6": {"stimulus": 30, "trial": 6, "rt": 4608, "response": "Alpha"}, "9": {"stimulus": 43, "trial": 9, "rt": 1286, "response": "Alpha"}, "8": {"stimulus": 22, "trial": 8, "rt": 1422, "response": "Beta"}, "78": {"stimulus": 38, "trial": 78, "rt": 813, "response": "Alpha"}, "51": {"stimulus": 31, "trial": 51, "rt": 999, "response": "Alpha"}, "39": {"stimulus": 75, "trial": 39, "rt": 1233, "response": "Alpha"}, "65": {"stimulus": 64, "trial": 65, "rt": 826, "response": "Alpha"}, "76": {"stimulus": 13, "trial": 76, "rt": 806, "response": "Alpha"}, "75": {"stimulus": 61, "trial": 75, "rt": 688, "response": "Alpha"}, "38": {"stimulus": 78, "trial": 38, "rt": 1718, "response": "Alpha"}, "73": {"stimulus": 2, "trial": 73, "rt": 1139, "response": "Beta"}, "72": {"stimulus": 77, "trial": 72, "rt": 663, "response": "Alpha"}, "71": {"stimulus": 37, "trial": 71, "rt": 1082, "response": "Alpha"}, "70": {"stimulus": 10, "trial": 70, "rt": 969, "response": "Beta"}, "59": {"stimulus": 20, "trial": 59, "rt": 800, "response": "Beta"}, "79": {"stimulus": 11, "trial": 79, "rt": 1702, "response": "Beta"}, "58": {"stimulus": 35, "trial": 58, "rt": 798, "response": "Beta"}, "11": {"stimulus": 65, "trial": 11, "rt": 1133, "response": "Alpha"}, "10": {"stimulus": 19, "trial": 10, "rt": 6273, "response": "Beta"}, "13": {"stimulus": 72, "trial": 13, "rt": 1104, "response": "Alpha"}, "12": {"stimulus": 51, "trial": 12, "rt": 1049, "response": "Alpha"}, "15": {"stimulus": 12, "trial": 15, "rt": 762, "response": "Beta"}, "14": {"stimulus": 8, "trial": 14, "rt": 666, "response": "Beta"}, "17": {"stimulus": 0, "trial": 17, "rt": 748, "response": "Beta"}, "16": {"stimulus": 71, "trial": 16, "rt": 824, "response": "Alpha"}, "19": {"stimulus": 58, "trial": 19, "rt": 591, "response": "Alpha"}, "18": {"stimulus": 57, "trial": 18, "rt": 1109, "response": "Alpha"}, "31": {"stimulus": 16, "trial": 31, "rt": 1065, "response": "Beta"}, "30": {"stimulus": 14, "trial": 30, "rt": 1014, "response": "Beta"}, "37": {"stimulus": 9, "trial": 37, "rt": 1313, "response": "Beta"}, "36": {"stimulus": 17, "trial": 36, "rt": 1195, "response": "Beta"}, "35": {"stimulus": 66, "trial": 35, "rt": 606, "response": "Alpha"}, "34": {"stimulus": 70, "trial": 34, "rt": 548, "response": "Alpha"}, "33": {"stimulus": 27, "trial": 33, "rt": 980, "response": "Alpha"}, "55": {"stimulus": 1, "trial": 55, "rt": 1201, "response": "Beta"}, "74": {"stimulus": 33, "trial": 74, "rt": 1389, "response": "Alpha"}, "32": {"stimulus": 23, "trial": 32, "rt": 1231, "response": "Beta"}, "57": {"stimulus": 25, "trial": 57, "rt": 1141, "response": "Beta"}, "50": {"stimulus": 52, "trial": 50, "rt": 4925, "response": "Alpha"}}, "experiment": {"Paradigm": "TACL", "Stimuli": "Size-Color Squares and Size-Orientation Circles", "Experiment": "Generating-Multiple-Categories"}, "submit": {"timeTotal": 326279, "age": "25", "comments": "Thank you!", "sex": "male"}}