{"info": {"finish": 1554510095964, "participant": 52, "exposed": true, "lab": false, "start": 1554509556400, "counterbalance": 0, "stimtype": "Squares", "gentype": 1, "condition": "Corner_S", "browser": {"platform": "Win32", "userAgent": "Mozilla/5.0 (Windows NT 6.1; WOW64) AppleWebKit/537.36 (KHTML, like Gecko) Chrome/73.0.3683.86 Safari/537.36"}}, "observation": {"11": {"stimulus": 72, "trial": 11, "rt": 7791}, "10": {"stimulus": 8, "trial": 10, "rt": 9127}, "1": {"stimulus": 0, "trial": 1, "rt": 7716}, "0": {"stimulus": 72, "trial": 0, "rt": 2196}, "3": {"stimulus": 80, "trial": 3, "rt": 1912}, "2": {"stimulus": 8, "trial": 2, "rt": 2000}, "5": {"stimulus": 0, "trial": 5, "rt": 1711}, "4": {"stimulus": 80, "trial": 4, "rt": 1655}, "7": {"stimulus": 8, "trial": 7, "rt": 1734}, "6": {"stimulus": 72, "trial": 6, "rt": 1536}, "9": {"stimulus": 0, "trial": 9, "rt": 1959}, "8": {"stimulus": 80, "trial": 8, "rt": 20743}}, "generation": {"1": {"category": "Beta", "trial": 1, "stimulus": 38, "rt": 6871}, "0": {"category": "Beta", "trial": 0, "stimulus": 27, "rt": 18399}, "3": {"category": "Beta", "trial": 3, "stimulus": 36, "rt": 14823}, "2": {"category": "Beta", "trial": 2, "stimulus": 39, "rt": 6324}}, "generalization": {"56": {"stimulus": 14, "trial": 56, "rt": 1066, "response": "Alpha"}, "77": {"stimulus": 74, "trial": 77, "rt": 3875, "response": "Alpha"}, "54": {"stimulus": 10, "trial": 54, "rt": 1061, "response": "Alpha"}, "42": {"stimulus": 18, "trial": 42, "rt": 6111, "response": "Alpha"}, "48": {"stimulus": 70, "trial": 48, "rt": 1390, "response": "Alpha"}, "43": {"stimulus": 73, "trial": 43, "rt": 2118, "response": "Alpha"}, "60": {"stimulus": 27, "trial": 60, "rt": 2030, "response": "Beta"}, "61": {"stimulus": 50, "trial": 61, "rt": 2559, "response": "Beta"}, "62": {"stimulus": 69, "trial": 62, "rt": 879, "response": "Alpha"}, "63": {"stimulus": 59, "trial": 63, "rt": 7335, "response": "Beta"}, "64": {"stimulus": 1, "trial": 64, "rt": 6187, "response": "Alpha"}, "49": {"stimulus": 33, "trial": 49, "rt": 1360, "response": "Alpha"}, "66": {"stimulus": 46, "trial": 66, "rt": 3838, "response": "Beta"}, "67": {"stimulus": 0, "trial": 67, "rt": 1844, "response": "Alpha"}, "68": {"stimulus": 25, "trial": 68, "rt": 2170, "response": "Alpha"}, "69": {"stimulus": 29, "trial": 69, "rt": 6736, "response": "Beta"}, "80": {"stimulus": 38, "trial": 80, "rt": 4126, "response": "Beta"}, "52": {"stimulus": 75, "trial": 52, "rt": 719, "response": "Alpha"}, "53": {"stimulus": 2, "trial": 53, "rt": 719, "response": "Alpha"}, "24": {"stimulus": 40, "trial": 24, "rt": 1299, "response": "Alpha"}, "25": {"stimulus": 15, "trial": 25, "rt": 900, "response": "Alpha"}, "26": {"stimulus": 7, "trial": 26, "rt": 501, "response": "Alpha"}, "27": {"stimulus": 61, "trial": 27, "rt": 668, "response": "Alpha"}, "20": {"stimulus": 45, "trial": 20, "rt": 972, "response": "Beta"}, "21": {"stimulus": 54, "trial": 21, "rt": 806, "response": "Beta"}, "22": {"stimulus": 51, "trial": 22, "rt": 2775, "response": "Alpha"}, "23": {"stimulus": 52, "trial": 23, "rt": 764, "response": "Alpha"}, "46": {"stimulus": 11, "trial": 46, "rt": 1790, "response": "Alpha"}, "47": {"stimulus": 35, "trial": 47, "rt": 1167, "response": "Alpha"}, "44": {"stimulus": 63, "trial": 44, "rt": 928, "response": "Alpha"}, "45": {"stimulus": 64, "trial": 45, "rt": 5716, "response": "Alpha"}, "28": {"stimulus": 28, "trial": 28, "rt": 2214, "response": "Beta"}, "29": {"stimulus": 8, "trial": 29, "rt": 754, "response": "Alpha"}, "40": {"stimulus": 42, "trial": 40, "rt": 2457, "response": "Alpha"}, "41": {"stimulus": 21, "trial": 41, "rt": 1882, "response": "Alpha"}, "1": {"stimulus": 24, "trial": 1, "rt": 2470, "response": "Alpha"}, "0": {"stimulus": 44, "trial": 0, "rt": 7990, "response": "Alpha"}, "3": {"stimulus": 65, "trial": 3, "rt": 2206, "response": "Alpha"}, "2": {"stimulus": 47, "trial": 2, "rt": 902, "response": "Beta"}, "5": {"stimulus": 19, "trial": 5, "rt": 1043, "response": "Alpha"}, "4": {"stimulus": 13, "trial": 4, "rt": 931, "response": "Alpha"}, "7": {"stimulus": 80, "trial": 7, "rt": 847, "response": "Alpha"}, "6": {"stimulus": 55, "trial": 6, "rt": 4799, "response": "Beta"}, "9": {"stimulus": 5, "trial": 9, "rt": 751, "response": "Alpha"}, "8": {"stimulus": 53, "trial": 8, "rt": 1140, "response": "Alpha"}, "78": {"stimulus": 31, "trial": 78, "rt": 27574, "response": "Beta"}, "51": {"stimulus": 79, "trial": 51, "rt": 702, "response": "Alpha"}, "39": {"stimulus": 60, "trial": 39, "rt": 4319, "response": "Alpha"}, "65": {"stimulus": 9, "trial": 65, "rt": 18740, "response": "Alpha"}, "76": {"stimulus": 48, "trial": 76, "rt": 834, "response": "Beta"}, "75": {"stimulus": 56, "trial": 75, "rt": 1334, "response": "Beta"}, "38": {"stimulus": 36, "trial": 38, "rt": 2811, "response": "Beta"}, "73": {"stimulus": 22, "trial": 73, "rt": 25907, "response": "Alpha"}, "72": {"stimulus": 57, "trial": 72, "rt": 12816, "response": "Beta"}, "71": {"stimulus": 37, "trial": 71, "rt": 1921, "response": "Beta"}, "70": {"stimulus": 67, "trial": 70, "rt": 3870, "response": "Alpha"}, "59": {"stimulus": 68, "trial": 59, "rt": 1109, "response": "Alpha"}, "79": {"stimulus": 4, "trial": 79, "rt": 2263, "response": "Alpha"}, "58": {"stimulus": 71, "trial": 58, "rt": 1031, "response": "Alpha"}, "11": {"stimulus": 78, "trial": 11, "rt": 654, "response": "Alpha"}, "10": {"stimulus": 77, "trial": 10, "rt": 774, "response": "Alpha"}, "13": {"stimulus": 32, "trial": 13, "rt": 2195, "response": "Alpha"}, "12": {"stimulus": 3, "trial": 12, "rt": 932, "response": "Alpha"}, "15": {"stimulus": 20, "trial": 15, "rt": 1828, "response": "Alpha"}, "14": {"stimulus": 34, "trial": 14, "rt": 717, "response": "Alpha"}, "17": {"stimulus": 76, "trial": 17, "rt": 968, "response": "Alpha"}, "16": {"stimulus": 58, "trial": 16, "rt": 3067, "response": "Beta"}, "19": {"stimulus": 72, "trial": 19, "rt": 1006, "response": "Alpha"}, "18": {"stimulus": 30, "trial": 18, "rt": 1973, "response": "Alpha"}, "31": {"stimulus": 43, "trial": 31, "rt": 12128, "response": "Alpha"}, "30": {"stimulus": 49, "trial": 30, "rt": 1728, "response": "Beta"}, "37": {"stimulus": 66, "trial": 37, "rt": 922, "response": "Alpha"}, "36": {"stimulus": 0, "trial": 36, "rt": 2722, "response": "Alpha"}, "35": {"stimulus": 41, "trial": 35, "rt": 7136, "response": "Beta"}, "34": {"stimulus": 17, "trial": 34, "rt": 539, "response": "Alpha"}, "33": {"stimulus": 16, "trial": 33, "rt": 603, "response": "Alpha"}, "55": {"stimulus": 12, "trial": 55, "rt": 20998, "response": "Alpha"}, "74": {"stimulus": 26, "trial": 74, "rt": 12232, "response": "Alpha"}, "32": {"stimulus": 6, "trial": 32, "rt": 736, "response": "Alpha"}, "57": {"stimulus": 62, "trial": 57, "rt": 3663, "response": "Alpha"}, "50": {"stimulus": 23, "trial": 50, "rt": 7151, "response": "Alpha"}}, "experiment": {"Paradigm": "TACL", "Stimuli": "Size-Color Squares and Size-Orientation Circles", "Experiment": "Generating-Multiple-Categories"}, "submit": {"timeTotal": 540289, "age": "40", "comments": "", "sex": "Non-binary"}}