{"info": {"finish": 1554509863523, "participant": 58, "exposed": true, "lab": false, "start": 1554509598521, "counterbalance": 3, "stimtype": "Circles", "gentype": 1, "condition": "Corner_C", "browser": {"platform": "Win32", "userAgent": "Mozilla/5.0 (Windows NT 6.3; Win64; x64) AppleWebKit/537.36 (KHTML, like Gecko) Chrome/74.0.3729.61 Safari/537.36"}}, "observation": {"11": {"stimulus": 80, "trial": 11, "rt": 1581}, "10": {"stimulus": 8, "trial": 10, "rt": 1653}, "1": {"stimulus": 8, "trial": 1, "rt": 2257}, "0": {"stimulus": 0, "trial": 0, "rt": 2514}, "3": {"stimulus": 80, "trial": 3, "rt": 1700}, "2": {"stimulus": 72, "trial": 2, "rt": 1685}, "5": {"stimulus": 72, "trial": 5, "rt": 1757}, "4": {"stimulus": 80, "trial": 4, "rt": 1536}, "7": {"stimulus": 0, "trial": 7, "rt": 1615}, "6": {"stimulus": 8, "trial": 6, "rt": 1552}, "9": {"stimulus": 0, "trial": 9, "rt": 1740}, "8": {"stimulus": 72, "trial": 8, "rt": 1513}}, "generation": {"1": {"category": "Beta", "trial": 1, "stimulus": 42, "rt": 13217}, "0": {"category": "Beta", "trial": 0, "stimulus": 38, "rt": 12891}, "3": {"category": "Beta", "trial": 3, "stimulus": 40, "rt": 8326}, "2": {"category": "Beta", "trial": 2, "stimulus": 37, "rt": 12763}}, "generalization": {"56": {"stimulus": 72, "trial": 56, "rt": 1092, "response": "Alpha"}, "77": {"stimulus": 59, "trial": 77, "rt": 892, "response": "Alpha"}, "54": {"stimulus": 43, "trial": 54, "rt": 1005, "response": "Beta"}, "42": {"stimulus": 63, "trial": 42, "rt": 552, "response": "Alpha"}, "48": {"stimulus": 17, "trial": 48, "rt": 590, "response": "Beta"}, "43": {"stimulus": 41, "trial": 43, "rt": 1158, "response": "Beta"}, "60": {"stimulus": 12, "trial": 60, "rt": 799, "response": "Beta"}, "61": {"stimulus": 10, "trial": 61, "rt": 537, "response": "Beta"}, "62": {"stimulus": 16, "trial": 62, "rt": 729, "response": "Beta"}, "63": {"stimulus": 44, "trial": 63, "rt": 679, "response": "Beta"}, "64": {"stimulus": 75, "trial": 64, "rt": 1390, "response": "Alpha"}, "49": {"stimulus": 24, "trial": 49, "rt": 575, "response": "Beta"}, "66": {"stimulus": 31, "trial": 66, "rt": 938, "response": "Beta"}, "67": {"stimulus": 38, "trial": 67, "rt": 912, "response": "Beta"}, "68": {"stimulus": 28, "trial": 68, "rt": 811, "response": "Beta"}, "69": {"stimulus": 32, "trial": 69, "rt": 749, "response": "Beta"}, "80": {"stimulus": 51, "trial": 80, "rt": 996, "response": "Beta"}, "52": {"stimulus": 40, "trial": 52, "rt": 645, "response": "Beta"}, "53": {"stimulus": 5, "trial": 53, "rt": 1000, "response": "Alpha"}, "24": {"stimulus": 60, "trial": 24, "rt": 840, "response": "Alpha"}, "25": {"stimulus": 30, "trial": 25, "rt": 919, "response": "Beta"}, "26": {"stimulus": 1, "trial": 26, "rt": 555, "response": "Alpha"}, "27": {"stimulus": 61, "trial": 27, "rt": 943, "response": "Beta"}, "20": {"stimulus": 13, "trial": 20, "rt": 1005, "response": "Beta"}, "21": {"stimulus": 45, "trial": 21, "rt": 1201, "response": "Beta"}, "22": {"stimulus": 0, "trial": 22, "rt": 754, "response": "Alpha"}, "23": {"stimulus": 65, "trial": 23, "rt": 676, "response": "Alpha"}, "46": {"stimulus": 49, "trial": 46, "rt": 712, "response": "Beta"}, "47": {"stimulus": 15, "trial": 47, "rt": 640, "response": "Beta"}, "44": {"stimulus": 64, "trial": 44, "rt": 1009, "response": "Alpha"}, "45": {"stimulus": 46, "trial": 45, "rt": 984, "response": "Beta"}, "28": {"stimulus": 23, "trial": 28, "rt": 990, "response": "Beta"}, "29": {"stimulus": 50, "trial": 29, "rt": 944, "response": "Beta"}, "40": {"stimulus": 9, "trial": 40, "rt": 732, "response": "Beta"}, "41": {"stimulus": 55, "trial": 41, "rt": 1251, "response": "Alpha"}, "1": {"stimulus": 21, "trial": 1, "rt": 1012, "response": "Beta"}, "0": {"stimulus": 78, "trial": 0, "rt": 1219, "response": "Alpha"}, "3": {"stimulus": 29, "trial": 3, "rt": 1137, "response": "Beta"}, "2": {"stimulus": 42, "trial": 2, "rt": 1068, "response": "Beta"}, "5": {"stimulus": 34, "trial": 5, "rt": 772, "response": "Beta"}, "4": {"stimulus": 48, "trial": 4, "rt": 1061, "response": "Beta"}, "7": {"stimulus": 0, "trial": 7, "rt": 804, "response": "Alpha"}, "6": {"stimulus": 80, "trial": 6, "rt": 856, "response": "Alpha"}, "9": {"stimulus": 74, "trial": 9, "rt": 553, "response": "Alpha"}, "8": {"stimulus": 79, "trial": 8, "rt": 716, "response": "Alpha"}, "78": {"stimulus": 36, "trial": 78, "rt": 847, "response": "Beta"}, "51": {"stimulus": 18, "trial": 51, "rt": 768, "response": "Beta"}, "39": {"stimulus": 52, "trial": 39, "rt": 601, "response": "Beta"}, "65": {"stimulus": 56, "trial": 65, "rt": 2069, "response": "Alpha"}, "76": {"stimulus": 14, "trial": 76, "rt": 640, "response": "Beta"}, "75": {"stimulus": 19, "trial": 75, "rt": 631, "response": "Beta"}, "38": {"stimulus": 53, "trial": 38, "rt": 1034, "response": "Beta"}, "73": {"stimulus": 37, "trial": 73, "rt": 632, "response": "Beta"}, "72": {"stimulus": 47, "trial": 72, "rt": 1116, "response": "Beta"}, "71": {"stimulus": 26, "trial": 71, "rt": 761, "response": "Beta"}, "70": {"stimulus": 57, "trial": 70, "rt": 865, "response": "Alpha"}, "59": {"stimulus": 71, "trial": 59, "rt": 908, "response": "Alpha"}, "79": {"stimulus": 58, "trial": 79, "rt": 1126, "response": "Alpha"}, "58": {"stimulus": 35, "trial": 58, "rt": 895, "response": "Beta"}, "11": {"stimulus": 54, "trial": 11, "rt": 827, "response": "Alpha"}, "10": {"stimulus": 6, "trial": 10, "rt": 724, "response": "Alpha"}, "13": {"stimulus": 68, "trial": 13, "rt": 870, "response": "Alpha"}, "12": {"stimulus": 62, "trial": 12, "rt": 687, "response": "Alpha"}, "15": {"stimulus": 7, "trial": 15, "rt": 739, "response": "Alpha"}, "14": {"stimulus": 77, "trial": 14, "rt": 873, "response": "Alpha"}, "17": {"stimulus": 22, "trial": 17, "rt": 932, "response": "Beta"}, "16": {"stimulus": 70, "trial": 16, "rt": 804, "response": "Alpha"}, "19": {"stimulus": 4, "trial": 19, "rt": 791, "response": "Alpha"}, "18": {"stimulus": 76, "trial": 18, "rt": 1122, "response": "Alpha"}, "31": {"stimulus": 66, "trial": 31, "rt": 783, "response": "Alpha"}, "30": {"stimulus": 27, "trial": 30, "rt": 835, "response": "Beta"}, "37": {"stimulus": 3, "trial": 37, "rt": 904, "response": "Alpha"}, "36": {"stimulus": 25, "trial": 36, "rt": 795, "response": "Beta"}, "35": {"stimulus": 8, "trial": 35, "rt": 591, "response": "Alpha"}, "34": {"stimulus": 67, "trial": 34, "rt": 568, "response": "Alpha"}, "33": {"stimulus": 73, "trial": 33, "rt": 598, "response": "Alpha"}, "55": {"stimulus": 20, "trial": 55, "rt": 732, "response": "Beta"}, "74": {"stimulus": 33, "trial": 74, "rt": 773, "response": "Beta"}, "32": {"stimulus": 2, "trial": 32, "rt": 543, "response": "Alpha"}, "57": {"stimulus": 69, "trial": 57, "rt": 591, "response": "Alpha"}, "50": {"stimulus": 11, "trial": 50, "rt": 574, "response": "Beta"}}, "experiment": {"Paradigm": "TACL", "Stimuli": "Size-Color Squares and Size-Orientation Circles", "Experiment": "Generating-Multiple-Categories"}, "submit": {"timeTotal": 265331, "age": "36", "comments": " ", "sex": "male"}}