{"info": {"finish": 1554555175393, "participant": 59, "exposed": true, "lab": false, "start": 1554554538363, "counterbalance": 4, "stimtype": "Circles", "gentype": 1, "condition": "Corner_C", "browser": {"platform": "Win32", "userAgent": "Mozilla/5.0 (Windows NT 6.3) AppleWebKit/537.36 (KHTML, like Gecko) Chrome/73.0.3683.103 Safari/537.36"}}, "observation": {"11": {"stimulus": 80, "trial": 11, "rt": 2755}, "10": {"stimulus": 72, "trial": 10, "rt": 4405}, "1": {"stimulus": 80, "trial": 1, "rt": 5691}, "0": {"stimulus": 8, "trial": 0, "rt": 10719}, "3": {"stimulus": 72, "trial": 3, "rt": 2367}, "2": {"stimulus": 0, "trial": 2, "rt": 4286}, "5": {"stimulus": 80, "trial": 5, "rt": 6852}, "4": {"stimulus": 72, "trial": 4, "rt": 5740}, "7": {"stimulus": 8, "trial": 7, "rt": 3699}, "6": {"stimulus": 0, "trial": 6, "rt": 5195}, "9": {"stimulus": 0, "trial": 9, "rt": 4569}, "8": {"stimulus": 8, "trial": 8, "rt": 3877}}, "generation": {"1": {"category": "Beta", "trial": 1, "stimulus": 60, "rt": 103957}, "0": {"category": "Beta", "trial": 0, "stimulus": 42, "rt": 16390}, "3": {"category": "Beta", "trial": 3, "stimulus": 43, "rt": 15798}, "2": {"category": "Beta", "trial": 2, "stimulus": 68, "rt": 33118}}, "generalization": {"56": {"stimulus": 46, "trial": 56, "rt": 923, "response": "Alpha"}, "77": {"stimulus": 47, "trial": 77, "rt": 2141, "response": "Alpha"}, "54": {"stimulus": 42, "trial": 54, "rt": 860, "response": "Beta"}, "42": {"stimulus": 78, "trial": 42, "rt": 1748, "response": "Beta"}, "48": {"stimulus": 6, "trial": 48, "rt": 2616, "response": "Beta"}, "43": {"stimulus": 17, "trial": 43, "rt": 948, "response": "Beta"}, "60": {"stimulus": 30, "trial": 60, "rt": 1505, "response": "Beta"}, "61": {"stimulus": 28, "trial": 61, "rt": 1557, "response": "Alpha"}, "62": {"stimulus": 74, "trial": 62, "rt": 1021, "response": "Alpha"}, "63": {"stimulus": 37, "trial": 63, "rt": 812, "response": "Alpha"}, "64": {"stimulus": 29, "trial": 64, "rt": 1258, "response": "Alpha"}, "49": {"stimulus": 67, "trial": 49, "rt": 1755, "response": "Beta"}, "66": {"stimulus": 58, "trial": 66, "rt": 995, "response": "Beta"}, "67": {"stimulus": 24, "trial": 67, "rt": 5747, "response": "Beta"}, "68": {"stimulus": 72, "trial": 68, "rt": 2364, "response": "Alpha"}, "69": {"stimulus": 44, "trial": 69, "rt": 1300, "response": "Alpha"}, "80": {"stimulus": 49, "trial": 80, "rt": 1189, "response": "Beta"}, "52": {"stimulus": 71, "trial": 52, "rt": 1011, "response": "Alpha"}, "53": {"stimulus": 60, "trial": 53, "rt": 2844, "response": "Beta"}, "24": {"stimulus": 52, "trial": 24, "rt": 2501, "response": "Beta"}, "25": {"stimulus": 75, "trial": 25, "rt": 1337, "response": "Beta"}, "26": {"stimulus": 56, "trial": 26, "rt": 1965, "response": "Beta"}, "27": {"stimulus": 51, "trial": 27, "rt": 921, "response": "Beta"}, "20": {"stimulus": 5, "trial": 20, "rt": 1544, "response": "Beta"}, "21": {"stimulus": 33, "trial": 21, "rt": 1118, "response": "Beta"}, "22": {"stimulus": 0, "trial": 22, "rt": 2923, "response": "Alpha"}, "23": {"stimulus": 14, "trial": 23, "rt": 3159, "response": "Beta"}, "46": {"stimulus": 23, "trial": 46, "rt": 1061, "response": "Beta"}, "47": {"stimulus": 19, "trial": 47, "rt": 40532, "response": "Alpha"}, "44": {"stimulus": 0, "trial": 44, "rt": 1444, "response": "Alpha"}, "45": {"stimulus": 22, "trial": 45, "rt": 1532, "response": "Beta"}, "28": {"stimulus": 13, "trial": 28, "rt": 1018, "response": "Beta"}, "29": {"stimulus": 4, "trial": 29, "rt": 777, "response": "Beta"}, "40": {"stimulus": 8, "trial": 40, "rt": 1052, "response": "Alpha"}, "41": {"stimulus": 40, "trial": 41, "rt": 13123, "response": "Alpha"}, "1": {"stimulus": 63, "trial": 1, "rt": 1492, "response": "Alpha"}, "0": {"stimulus": 80, "trial": 0, "rt": 2214, "response": "Alpha"}, "3": {"stimulus": 64, "trial": 3, "rt": 843, "response": "Alpha"}, "2": {"stimulus": 10, "trial": 2, "rt": 2557, "response": "Alpha"}, "5": {"stimulus": 79, "trial": 5, "rt": 2021, "response": "Beta"}, "4": {"stimulus": 9, "trial": 4, "rt": 885, "response": "Alpha"}, "7": {"stimulus": 70, "trial": 7, "rt": 1717, "response": "Beta"}, "6": {"stimulus": 66, "trial": 6, "rt": 1920, "response": "Beta"}, "9": {"stimulus": 16, "trial": 9, "rt": 1044, "response": "Beta"}, "8": {"stimulus": 31, "trial": 8, "rt": 1278, "response": "Beta"}, "78": {"stimulus": 7, "trial": 78, "rt": 2377, "response": "Beta"}, "51": {"stimulus": 73, "trial": 51, "rt": 876, "response": "Alpha"}, "39": {"stimulus": 55, "trial": 39, "rt": 1285, "response": "Alpha"}, "65": {"stimulus": 59, "trial": 65, "rt": 4221, "response": "Beta"}, "76": {"stimulus": 68, "trial": 76, "rt": 708, "response": "Beta"}, "75": {"stimulus": 15, "trial": 75, "rt": 834, "response": "Beta"}, "38": {"stimulus": 43, "trial": 38, "rt": 940, "response": "Beta"}, "73": {"stimulus": 77, "trial": 73, "rt": 7250, "response": "Beta"}, "72": {"stimulus": 27, "trial": 72, "rt": 1215, "response": "Alpha"}, "71": {"stimulus": 20, "trial": 71, "rt": 1004, "response": "Alpha"}, "70": {"stimulus": 21, "trial": 70, "rt": 1245, "response": "Alpha"}, "59": {"stimulus": 50, "trial": 59, "rt": 6764, "response": "Beta"}, "79": {"stimulus": 3, "trial": 79, "rt": 10438, "response": "Beta"}, "58": {"stimulus": 57, "trial": 58, "rt": 1270, "response": "Beta"}, "11": {"stimulus": 12, "trial": 11, "rt": 2364, "response": "Beta"}, "10": {"stimulus": 34, "trial": 10, "rt": 1182, "response": "Beta"}, "13": {"stimulus": 76, "trial": 13, "rt": 1943, "response": "Beta"}, "12": {"stimulus": 61, "trial": 12, "rt": 2157, "response": "Beta"}, "15": {"stimulus": 11, "trial": 15, "rt": 2757, "response": "Alpha"}, "14": {"stimulus": 36, "trial": 14, "rt": 3238, "response": "Alpha"}, "17": {"stimulus": 18, "trial": 17, "rt": 949, "response": "Alpha"}, "16": {"stimulus": 54, "trial": 16, "rt": 2625, "response": "Alpha"}, "19": {"stimulus": 45, "trial": 19, "rt": 770, "response": "Alpha"}, "18": {"stimulus": 65, "trial": 18, "rt": 936, "response": "Alpha"}, "31": {"stimulus": 48, "trial": 31, "rt": 4325, "response": "Beta"}, "30": {"stimulus": 25, "trial": 30, "rt": 1663, "response": "Beta"}, "37": {"stimulus": 32, "trial": 37, "rt": 2020, "response": "Beta"}, "36": {"stimulus": 69, "trial": 36, "rt": 1557, "response": "Beta"}, "35": {"stimulus": 35, "trial": 35, "rt": 3785, "response": "Alpha"}, "34": {"stimulus": 26, "trial": 34, "rt": 1596, "response": "Alpha"}, "33": {"stimulus": 53, "trial": 33, "rt": 1079, "response": "Alpha"}, "55": {"stimulus": 1, "trial": 55, "rt": 1850, "response": "Alpha"}, "74": {"stimulus": 2, "trial": 74, "rt": 966, "response": "Beta"}, "32": {"stimulus": 62, "trial": 32, "rt": 2408, "response": "Alpha"}, "57": {"stimulus": 41, "trial": 57, "rt": 1851, "response": "Beta"}, "50": {"stimulus": 38, "trial": 50, "rt": 1615, "response": "Alpha"}}, "experiment": {"Paradigm": "TACL", "Stimuli": "Size-Color Squares and Size-Orientation Circles", "Experiment": "Generating-Multiple-Categories"}, "submit": {"timeTotal": 638878, "age": "29", "comments": "nice", "sex": "male"}}