{"info": {"finish": 1554493003400, "participant": 6, "exposed": true, "lab": true, "start": 1554492855755, "counterbalance": 1, "stimtype": "Circles", "gentype": 1, "condition": "Corner_C", "browser": {"platform": "MacIntel", "userAgent": "Mozilla/5.0 (Macintosh; Intel Mac OS X 10.14; rv:66.0) Gecko/20100101 Firefox/66.0"}}, "observation": {"11": {"stimulus": 0, "trial": 11, "rt": 1336}, "10": {"stimulus": 8, "trial": 10, "rt": 1215}, "1": {"stimulus": 8, "trial": 1, "rt": 1402}, "0": {"stimulus": 72, "trial": 0, "rt": 1438}, "3": {"stimulus": 0, "trial": 3, "rt": 1320}, "2": {"stimulus": 80, "trial": 2, "rt": 1307}, "5": {"stimulus": 8, "trial": 5, "rt": 1357}, "4": {"stimulus": 72, "trial": 4, "rt": 1360}, "7": {"stimulus": 0, "trial": 7, "rt": 1386}, "6": {"stimulus": 80, "trial": 6, "rt": 1342}, "9": {"stimulus": 72, "trial": 9, "rt": 1306}, "8": {"stimulus": 80, "trial": 8, "rt": 1381}}, "generation": {"1": {"category": "Beta", "trial": 1, "stimulus": 5, "rt": 1317}, "0": {"category": "Beta", "trial": 0, "stimulus": 30, "rt": 1691}, "3": {"category": "Beta", "trial": 3, "stimulus": 41, "rt": 1115}, "2": {"category": "Beta", "trial": 2, "stimulus": 59, "rt": 1256}}, "generalization": {"56": {"stimulus": 7, "trial": 56, "rt": 254, "response": "Alpha"}, "77": {"stimulus": 5, "trial": 77, "rt": 308, "response": "Alpha"}, "54": {"stimulus": 79, "trial": 54, "rt": 234, "response": "Alpha"}, "42": {"stimulus": 38, "trial": 42, "rt": 472, "response": "Alpha"}, "48": {"stimulus": 25, "trial": 48, "rt": 290, "response": "Alpha"}, "43": {"stimulus": 17, "trial": 43, "rt": 517, "response": "Alpha"}, "60": {"stimulus": 13, "trial": 60, "rt": 270, "response": "Alpha"}, "61": {"stimulus": 1, "trial": 61, "rt": 373, "response": "Alpha"}, "62": {"stimulus": 76, "trial": 62, "rt": 236, "response": "Alpha"}, "63": {"stimulus": 21, "trial": 63, "rt": 222, "response": "Alpha"}, "64": {"stimulus": 60, "trial": 64, "rt": 216, "response": "Alpha"}, "49": {"stimulus": 37, "trial": 49, "rt": 221, "response": "Alpha"}, "66": {"stimulus": 30, "trial": 66, "rt": 127, "response": "Alpha"}, "67": {"stimulus": 50, "trial": 67, "rt": 540, "response": "Alpha"}, "68": {"stimulus": 33, "trial": 68, "rt": 193, "response": "Alpha"}, "69": {"stimulus": 4, "trial": 69, "rt": 293, "response": "Alpha"}, "80": {"stimulus": 8, "trial": 80, "rt": 375, "response": "Alpha"}, "52": {"stimulus": 73, "trial": 52, "rt": 147, "response": "Alpha"}, "53": {"stimulus": 57, "trial": 53, "rt": 177, "response": "Alpha"}, "24": {"stimulus": 51, "trial": 24, "rt": 210, "response": "Alpha"}, "25": {"stimulus": 58, "trial": 25, "rt": 335, "response": "Alpha"}, "26": {"stimulus": 22, "trial": 26, "rt": 323, "response": "Alpha"}, "27": {"stimulus": 68, "trial": 27, "rt": 304, "response": "Alpha"}, "20": {"stimulus": 26, "trial": 20, "rt": 284, "response": "Alpha"}, "21": {"stimulus": 32, "trial": 21, "rt": 464, "response": "Alpha"}, "22": {"stimulus": 62, "trial": 22, "rt": 299, "response": "Alpha"}, "23": {"stimulus": 65, "trial": 23, "rt": 172, "response": "Alpha"}, "46": {"stimulus": 9, "trial": 46, "rt": 299, "response": "Alpha"}, "47": {"stimulus": 77, "trial": 47, "rt": 224, "response": "Alpha"}, "44": {"stimulus": 71, "trial": 44, "rt": 289, "response": "Alpha"}, "45": {"stimulus": 52, "trial": 45, "rt": 135, "response": "Alpha"}, "28": {"stimulus": 36, "trial": 28, "rt": 310, "response": "Alpha"}, "29": {"stimulus": 14, "trial": 29, "rt": 306, "response": "Alpha"}, "40": {"stimulus": 63, "trial": 40, "rt": 307, "response": "Alpha"}, "41": {"stimulus": 40, "trial": 41, "rt": 1183, "response": "Alpha"}, "1": {"stimulus": 2, "trial": 1, "rt": 404, "response": "Alpha"}, "0": {"stimulus": 80, "trial": 0, "rt": 642, "response": "Alpha"}, "3": {"stimulus": 78, "trial": 3, "rt": 200, "response": "Alpha"}, "2": {"stimulus": 70, "trial": 2, "rt": 322, "response": "Alpha"}, "5": {"stimulus": 20, "trial": 5, "rt": 282, "response": "Alpha"}, "4": {"stimulus": 48, "trial": 4, "rt": 391, "response": "Alpha"}, "7": {"stimulus": 54, "trial": 7, "rt": 300, "response": "Alpha"}, "6": {"stimulus": 67, "trial": 6, "rt": 215, "response": "Alpha"}, "9": {"stimulus": 46, "trial": 9, "rt": 218, "response": "Alpha"}, "8": {"stimulus": 23, "trial": 8, "rt": 337, "response": "Alpha"}, "78": {"stimulus": 6, "trial": 78, "rt": 835, "response": "Alpha"}, "51": {"stimulus": 18, "trial": 51, "rt": 213, "response": "Alpha"}, "39": {"stimulus": 31, "trial": 39, "rt": 712, "response": "Alpha"}, "65": {"stimulus": 0, "trial": 65, "rt": 188, "response": "Alpha"}, "76": {"stimulus": 27, "trial": 76, "rt": 411, "response": "Alpha"}, "75": {"stimulus": 41, "trial": 75, "rt": 376, "response": "Alpha"}, "38": {"stimulus": 42, "trial": 38, "rt": 349, "response": "Alpha"}, "73": {"stimulus": 19, "trial": 73, "rt": 204, "response": "Alpha"}, "72": {"stimulus": 49, "trial": 72, "rt": 338, "response": "Alpha"}, "71": {"stimulus": 55, "trial": 71, "rt": 194, "response": "Alpha"}, "70": {"stimulus": 3, "trial": 70, "rt": 322, "response": "Alpha"}, "59": {"stimulus": 56, "trial": 59, "rt": 171, "response": "Alpha"}, "79": {"stimulus": 35, "trial": 79, "rt": 368, "response": "Alpha"}, "58": {"stimulus": 64, "trial": 58, "rt": 262, "response": "Alpha"}, "11": {"stimulus": 15, "trial": 11, "rt": 193, "response": "Alpha"}, "10": {"stimulus": 44, "trial": 10, "rt": 292, "response": "Alpha"}, "13": {"stimulus": 75, "trial": 13, "rt": 246, "response": "Alpha"}, "12": {"stimulus": 53, "trial": 12, "rt": 277, "response": "Alpha"}, "15": {"stimulus": 45, "trial": 15, "rt": 284, "response": "Alpha"}, "14": {"stimulus": 16, "trial": 14, "rt": 240, "response": "Alpha"}, "17": {"stimulus": 0, "trial": 17, "rt": 133, "response": "Alpha"}, "16": {"stimulus": 29, "trial": 16, "rt": 171, "response": "Alpha"}, "19": {"stimulus": 72, "trial": 19, "rt": 180, "response": "Alpha"}, "18": {"stimulus": 28, "trial": 18, "rt": 235, "response": "Alpha"}, "31": {"stimulus": 61, "trial": 31, "rt": 202, "response": "Alpha"}, "30": {"stimulus": 24, "trial": 30, "rt": 230, "response": "Alpha"}, "37": {"stimulus": 34, "trial": 37, "rt": 195, "response": "Alpha"}, "36": {"stimulus": 12, "trial": 36, "rt": 239, "response": "Alpha"}, "35": {"stimulus": 69, "trial": 35, "rt": 278, "response": "Alpha"}, "34": {"stimulus": 47, "trial": 34, "rt": 176, "response": "Alpha"}, "33": {"stimulus": 11, "trial": 33, "rt": 499, "response": "Alpha"}, "55": {"stimulus": 74, "trial": 55, "rt": 280, "response": "Alpha"}, "74": {"stimulus": 43, "trial": 74, "rt": 308, "response": "Alpha"}, "32": {"stimulus": 10, "trial": 32, "rt": 179, "response": "Alpha"}, "57": {"stimulus": 66, "trial": 57, "rt": 275, "response": "Alpha"}, "50": {"stimulus": 59, "trial": 50, "rt": 181, "response": "Alpha"}}, "experiment": {"Paradigm": "TACL", "Stimuli": "Size-Color Squares and Size-Orientation Circles", "Experiment": "Generating-Multiple-Categories"}, "submit": {"timeTotal": 147752, "age": "33", "comments": "3", "sex": "33"}}