{"info": {"finish": 1554510028440, "participant": 60, "exposed": true, "lab": false, "start": 1554509686090, "counterbalance": 4, "stimtype": "Circles", "gentype": 1, "condition": "Corner_C", "browser": {"platform": "Win32", "userAgent": "Mozilla/5.0 (Windows NT 6.1) AppleWebKit/537.36 (KHTML, like Gecko) Chrome/73.0.3683.86 Safari/537.36"}}, "observation": {"11": {"stimulus": 72, "trial": 11, "rt": 1741}, "10": {"stimulus": 80, "trial": 10, "rt": 1525}, "1": {"stimulus": 72, "trial": 1, "rt": 13419}, "0": {"stimulus": 0, "trial": 0, "rt": 7623}, "3": {"stimulus": 8, "trial": 3, "rt": 2189}, "2": {"stimulus": 80, "trial": 2, "rt": 4981}, "5": {"stimulus": 72, "trial": 5, "rt": 2264}, "4": {"stimulus": 0, "trial": 4, "rt": 2236}, "7": {"stimulus": 8, "trial": 7, "rt": 2249}, "6": {"stimulus": 80, "trial": 6, "rt": 1805}, "9": {"stimulus": 8, "trial": 9, "rt": 1642}, "8": {"stimulus": 0, "trial": 8, "rt": 1949}}, "generation": {"1": {"category": "Beta", "trial": 1, "stimulus": 49, "rt": 12654}, "0": {"category": "Beta", "trial": 0, "stimulus": 42, "rt": 41332}, "3": {"category": "Beta", "trial": 3, "stimulus": 70, "rt": 8094}, "2": {"category": "Beta", "trial": 2, "stimulus": 12, "rt": 9692}}, "generalization": {"56": {"stimulus": 61, "trial": 56, "rt": 1072, "response": "Beta"}, "77": {"stimulus": 23, "trial": 77, "rt": 1063, "response": "Beta"}, "54": {"stimulus": 19, "trial": 54, "rt": 561, "response": "Alpha"}, "42": {"stimulus": 32, "trial": 42, "rt": 974, "response": "Beta"}, "48": {"stimulus": 1, "trial": 48, "rt": 618, "response": "Alpha"}, "43": {"stimulus": 51, "trial": 43, "rt": 817, "response": "Beta"}, "60": {"stimulus": 14, "trial": 60, "rt": 1350, "response": "Beta"}, "61": {"stimulus": 11, "trial": 61, "rt": 1065, "response": "Alpha"}, "62": {"stimulus": 12, "trial": 62, "rt": 1569, "response": "Alpha"}, "63": {"stimulus": 22, "trial": 63, "rt": 928, "response": "Beta"}, "64": {"stimulus": 30, "trial": 64, "rt": 1302, "response": "Beta"}, "49": {"stimulus": 67, "trial": 49, "rt": 926, "response": "Beta"}, "66": {"stimulus": 56, "trial": 66, "rt": 1118, "response": "Alpha"}, "67": {"stimulus": 28, "trial": 67, "rt": 707, "response": "Alpha"}, "68": {"stimulus": 57, "trial": 68, "rt": 1221, "response": "Alpha"}, "69": {"stimulus": 59, "trial": 69, "rt": 1105, "response": "Beta"}, "80": {"stimulus": 60, "trial": 80, "rt": 1279, "response": "Beta"}, "52": {"stimulus": 8, "trial": 52, "rt": 621, "response": "Alpha"}, "53": {"stimulus": 9, "trial": 53, "rt": 593, "response": "Alpha"}, "24": {"stimulus": 2, "trial": 24, "rt": 909, "response": "Alpha"}, "25": {"stimulus": 38, "trial": 25, "rt": 870, "response": "Alpha"}, "26": {"stimulus": 15, "trial": 26, "rt": 1136, "response": "Beta"}, "27": {"stimulus": 72, "trial": 27, "rt": 1030, "response": "Alpha"}, "20": {"stimulus": 50, "trial": 20, "rt": 1129, "response": "Beta"}, "21": {"stimulus": 3, "trial": 21, "rt": 1097, "response": "Alpha"}, "22": {"stimulus": 44, "trial": 22, "rt": 1145, "response": "Alpha"}, "23": {"stimulus": 70, "trial": 23, "rt": 964, "response": "Beta"}, "46": {"stimulus": 42, "trial": 46, "rt": 934, "response": "Beta"}, "47": {"stimulus": 20, "trial": 47, "rt": 1029, "response": "Alpha"}, "44": {"stimulus": 7, "trial": 44, "rt": 772, "response": "Beta"}, "45": {"stimulus": 18, "trial": 45, "rt": 892, "response": "Alpha"}, "28": {"stimulus": 16, "trial": 28, "rt": 904, "response": "Beta"}, "29": {"stimulus": 35, "trial": 29, "rt": 926, "response": "Alpha"}, "40": {"stimulus": 79, "trial": 40, "rt": 949, "response": "Beta"}, "41": {"stimulus": 63, "trial": 41, "rt": 973, "response": "Alpha"}, "1": {"stimulus": 75, "trial": 1, "rt": 1646, "response": "Alpha"}, "0": {"stimulus": 24, "trial": 0, "rt": 2274, "response": "Beta"}, "3": {"stimulus": 76, "trial": 3, "rt": 989, "response": "Beta"}, "2": {"stimulus": 53, "trial": 2, "rt": 1086, "response": "Alpha"}, "5": {"stimulus": 33, "trial": 5, "rt": 843, "response": "Beta"}, "4": {"stimulus": 49, "trial": 4, "rt": 1029, "response": "Beta"}, "7": {"stimulus": 58, "trial": 7, "rt": 1064, "response": "Beta"}, "6": {"stimulus": 46, "trial": 6, "rt": 1321, "response": "Alpha"}, "9": {"stimulus": 4, "trial": 9, "rt": 731, "response": "Beta"}, "8": {"stimulus": 5, "trial": 8, "rt": 853, "response": "Beta"}, "78": {"stimulus": 13, "trial": 78, "rt": 813, "response": "Beta"}, "51": {"stimulus": 54, "trial": 51, "rt": 917, "response": "Alpha"}, "39": {"stimulus": 71, "trial": 39, "rt": 949, "response": "Alpha"}, "65": {"stimulus": 34, "trial": 65, "rt": 831, "response": "Beta"}, "76": {"stimulus": 74, "trial": 76, "rt": 707, "response": "Alpha"}, "75": {"stimulus": 62, "trial": 75, "rt": 915, "response": "Alpha"}, "38": {"stimulus": 6, "trial": 38, "rt": 1043, "response": "Beta"}, "73": {"stimulus": 21, "trial": 73, "rt": 1718, "response": "Beta"}, "72": {"stimulus": 68, "trial": 72, "rt": 952, "response": "Beta"}, "71": {"stimulus": 36, "trial": 71, "rt": 624, "response": "Alpha"}, "70": {"stimulus": 55, "trial": 70, "rt": 853, "response": "Alpha"}, "59": {"stimulus": 64, "trial": 59, "rt": 895, "response": "Alpha"}, "79": {"stimulus": 45, "trial": 79, "rt": 878, "response": "Alpha"}, "58": {"stimulus": 31, "trial": 58, "rt": 939, "response": "Beta"}, "11": {"stimulus": 78, "trial": 11, "rt": 852, "response": "Beta"}, "10": {"stimulus": 41, "trial": 10, "rt": 1140, "response": "Beta"}, "13": {"stimulus": 77, "trial": 13, "rt": 971, "response": "Beta"}, "12": {"stimulus": 37, "trial": 12, "rt": 973, "response": "Alpha"}, "15": {"stimulus": 48, "trial": 15, "rt": 1161, "response": "Alpha"}, "14": {"stimulus": 66, "trial": 14, "rt": 1494, "response": "Alpha"}, "17": {"stimulus": 25, "trial": 17, "rt": 1124, "response": "Beta"}, "16": {"stimulus": 0, "trial": 16, "rt": 1283, "response": "Alpha"}, "19": {"stimulus": 17, "trial": 19, "rt": 1037, "response": "Alpha"}, "18": {"stimulus": 69, "trial": 18, "rt": 896, "response": "Beta"}, "31": {"stimulus": 80, "trial": 31, "rt": 736, "response": "Alpha"}, "30": {"stimulus": 27, "trial": 30, "rt": 870, "response": "Alpha"}, "37": {"stimulus": 73, "trial": 37, "rt": 856, "response": "Alpha"}, "36": {"stimulus": 29, "trial": 36, "rt": 1098, "response": "Alpha"}, "35": {"stimulus": 10, "trial": 35, "rt": 961, "response": "Alpha"}, "34": {"stimulus": 40, "trial": 34, "rt": 687, "response": "Beta"}, "33": {"stimulus": 52, "trial": 33, "rt": 1160, "response": "Beta"}, "55": {"stimulus": 65, "trial": 55, "rt": 545, "response": "Alpha"}, "74": {"stimulus": 43, "trial": 74, "rt": 1007, "response": "Alpha"}, "32": {"stimulus": 26, "trial": 32, "rt": 676, "response": "Alpha"}, "57": {"stimulus": 47, "trial": 57, "rt": 1430, "response": "Alpha"}, "50": {"stimulus": 0, "trial": 50, "rt": 846, "response": "Alpha"}}, "experiment": {"Paradigm": "TACL", "Stimuli": "Size-Color Squares and Size-Orientation Circles", "Experiment": "Generating-Multiple-Categories"}, "submit": {"timeTotal": 342607, "age": "59", "comments": "interesting", "sex": "female"}}