{"info": {"finish": 1554511277943, "participant": 61, "exposed": true, "lab": false, "start": 1554511018564, "counterbalance": 6, "stimtype": "Circles", "gentype": 1, "condition": "Corner_C", "browser": {"platform": "Win32", "userAgent": "Mozilla/5.0 (Windows NT 6.1; Win64; x64) AppleWebKit/537.36 (KHTML, like Gecko) Chrome/73.0.3683.86 Safari/537.36"}}, "observation": {"11": {"stimulus": 72, "trial": 11, "rt": 1466}, "10": {"stimulus": 80, "trial": 10, "rt": 1841}, "1": {"stimulus": 0, "trial": 1, "rt": 1811}, "0": {"stimulus": 80, "trial": 0, "rt": 2655}, "3": {"stimulus": 8, "trial": 3, "rt": 1532}, "2": {"stimulus": 72, "trial": 2, "rt": 1453}, "5": {"stimulus": 8, "trial": 5, "rt": 1882}, "4": {"stimulus": 0, "trial": 4, "rt": 1423}, "7": {"stimulus": 80, "trial": 7, "rt": 1424}, "6": {"stimulus": 72, "trial": 6, "rt": 1394}, "9": {"stimulus": 0, "trial": 9, "rt": 2443}, "8": {"stimulus": 8, "trial": 8, "rt": 1454}}, "generation": {"1": {"category": "Beta", "trial": 1, "stimulus": 69, "rt": 10493}, "0": {"category": "Beta", "trial": 0, "stimulus": 13, "rt": 11683}, "3": {"category": "Beta", "trial": 3, "stimulus": 76, "rt": 5957}, "2": {"category": "Beta", "trial": 2, "stimulus": 50, "rt": 4859}}, "generalization": {"56": {"stimulus": 78, "trial": 56, "rt": 733, "response": "Beta"}, "77": {"stimulus": 2, "trial": 77, "rt": 1056, "response": "Alpha"}, "54": {"stimulus": 71, "trial": 54, "rt": 865, "response": "Alpha"}, "42": {"stimulus": 38, "trial": 42, "rt": 668, "response": "Alpha"}, "48": {"stimulus": 15, "trial": 48, "rt": 946, "response": "Beta"}, "43": {"stimulus": 17, "trial": 43, "rt": 863, "response": "Alpha"}, "60": {"stimulus": 33, "trial": 60, "rt": 551, "response": "Beta"}, "61": {"stimulus": 48, "trial": 61, "rt": 972, "response": "Beta"}, "62": {"stimulus": 40, "trial": 62, "rt": 1201, "response": "Beta"}, "63": {"stimulus": 42, "trial": 63, "rt": 821, "response": "Beta"}, "64": {"stimulus": 28, "trial": 64, "rt": 3009, "response": "Alpha"}, "49": {"stimulus": 54, "trial": 49, "rt": 625, "response": "Alpha"}, "66": {"stimulus": 34, "trial": 66, "rt": 500, "response": "Beta"}, "67": {"stimulus": 37, "trial": 67, "rt": 1666, "response": "Alpha"}, "68": {"stimulus": 55, "trial": 68, "rt": 549, "response": "Alpha"}, "69": {"stimulus": 41, "trial": 69, "rt": 603, "response": "Beta"}, "80": {"stimulus": 24, "trial": 80, "rt": 637, "response": "Beta"}, "52": {"stimulus": 79, "trial": 52, "rt": 1621, "response": "Beta"}, "53": {"stimulus": 49, "trial": 53, "rt": 658, "response": "Beta"}, "24": {"stimulus": 75, "trial": 24, "rt": 841, "response": "Alpha"}, "25": {"stimulus": 18, "trial": 25, "rt": 801, "response": "Alpha"}, "26": {"stimulus": 3, "trial": 26, "rt": 1368, "response": "Beta"}, "27": {"stimulus": 25, "trial": 27, "rt": 801, "response": "Beta"}, "20": {"stimulus": 27, "trial": 20, "rt": 682, "response": "Alpha"}, "21": {"stimulus": 72, "trial": 21, "rt": 738, "response": "Alpha"}, "22": {"stimulus": 35, "trial": 22, "rt": 666, "response": "Alpha"}, "23": {"stimulus": 4, "trial": 23, "rt": 588, "response": "Beta"}, "46": {"stimulus": 65, "trial": 46, "rt": 628, "response": "Alpha"}, "47": {"stimulus": 60, "trial": 47, "rt": 727, "response": "Beta"}, "44": {"stimulus": 63, "trial": 44, "rt": 747, "response": "Alpha"}, "45": {"stimulus": 73, "trial": 45, "rt": 715, "response": "Alpha"}, "28": {"stimulus": 50, "trial": 28, "rt": 493, "response": "Beta"}, "29": {"stimulus": 0, "trial": 29, "rt": 606, "response": "Alpha"}, "40": {"stimulus": 32, "trial": 40, "rt": 749, "response": "Beta"}, "41": {"stimulus": 31, "trial": 41, "rt": 658, "response": "Beta"}, "1": {"stimulus": 56, "trial": 1, "rt": 2888, "response": "Alpha"}, "0": {"stimulus": 13, "trial": 0, "rt": 1326, "response": "Beta"}, "3": {"stimulus": 68, "trial": 3, "rt": 712, "response": "Beta"}, "2": {"stimulus": 64, "trial": 2, "rt": 1295, "response": "Alpha"}, "5": {"stimulus": 7, "trial": 5, "rt": 748, "response": "Beta"}, "4": {"stimulus": 59, "trial": 4, "rt": 646, "response": "Beta"}, "7": {"stimulus": 67, "trial": 7, "rt": 688, "response": "Beta"}, "6": {"stimulus": 44, "trial": 6, "rt": 624, "response": "Alpha"}, "9": {"stimulus": 69, "trial": 9, "rt": 665, "response": "Beta"}, "8": {"stimulus": 6, "trial": 8, "rt": 674, "response": "Beta"}, "78": {"stimulus": 8, "trial": 78, "rt": 772, "response": "Alpha"}, "51": {"stimulus": 45, "trial": 51, "rt": 520, "response": "Alpha"}, "39": {"stimulus": 70, "trial": 39, "rt": 3710, "response": "Beta"}, "65": {"stimulus": 61, "trial": 65, "rt": 677, "response": "Beta"}, "76": {"stimulus": 36, "trial": 76, "rt": 723, "response": "Alpha"}, "75": {"stimulus": 9, "trial": 75, "rt": 831, "response": "Alpha"}, "38": {"stimulus": 1, "trial": 38, "rt": 867, "response": "Alpha"}, "73": {"stimulus": 20, "trial": 73, "rt": 559, "response": "Alpha"}, "72": {"stimulus": 26, "trial": 72, "rt": 737, "response": "Alpha"}, "71": {"stimulus": 80, "trial": 71, "rt": 871, "response": "Alpha"}, "70": {"stimulus": 66, "trial": 70, "rt": 798, "response": "Beta"}, "59": {"stimulus": 23, "trial": 59, "rt": 642, "response": "Beta"}, "79": {"stimulus": 74, "trial": 79, "rt": 699, "response": "Alpha"}, "58": {"stimulus": 47, "trial": 58, "rt": 776, "response": "Alpha"}, "11": {"stimulus": 52, "trial": 11, "rt": 789, "response": "Beta"}, "10": {"stimulus": 11, "trial": 10, "rt": 785, "response": "Alpha"}, "13": {"stimulus": 0, "trial": 13, "rt": 1618, "response": "Alpha"}, "12": {"stimulus": 76, "trial": 12, "rt": 1169, "response": "Beta"}, "15": {"stimulus": 43, "trial": 15, "rt": 1314, "response": "Beta"}, "14": {"stimulus": 21, "trial": 14, "rt": 2600, "response": "Beta"}, "17": {"stimulus": 12, "trial": 17, "rt": 1328, "response": "Beta"}, "16": {"stimulus": 19, "trial": 16, "rt": 603, "response": "Alpha"}, "19": {"stimulus": 16, "trial": 19, "rt": 510, "response": "Beta"}, "18": {"stimulus": 51, "trial": 18, "rt": 725, "response": "Beta"}, "31": {"stimulus": 5, "trial": 31, "rt": 690, "response": "Beta"}, "30": {"stimulus": 77, "trial": 30, "rt": 1018, "response": "Beta"}, "37": {"stimulus": 22, "trial": 37, "rt": 579, "response": "Beta"}, "36": {"stimulus": 62, "trial": 36, "rt": 565, "response": "Alpha"}, "35": {"stimulus": 58, "trial": 35, "rt": 865, "response": "Beta"}, "34": {"stimulus": 46, "trial": 34, "rt": 945, "response": "Alpha"}, "33": {"stimulus": 29, "trial": 33, "rt": 737, "response": "Alpha"}, "55": {"stimulus": 10, "trial": 55, "rt": 2263, "response": "Alpha"}, "74": {"stimulus": 30, "trial": 74, "rt": 1465, "response": "Beta"}, "32": {"stimulus": 57, "trial": 32, "rt": 1197, "response": "Beta"}, "57": {"stimulus": 14, "trial": 57, "rt": 652, "response": "Beta"}, "50": {"stimulus": 53, "trial": 50, "rt": 612, "response": "Alpha"}}, "experiment": {"Paradigm": "TACL", "Stimuli": "Size-Color Squares and Size-Orientation Circles", "Experiment": "Generating-Multiple-Categories"}, "submit": {"timeTotal": 259830, "age": "32", "comments": "i like circles!!!!", "sex": "male"}}