{"info": {"finish": 1554512052619, "participant": 62, "exposed": true, "lab": false, "start": 1554511140629, "counterbalance": 5, "stimtype": "Circles", "gentype": 1, "condition": "Corner_C", "browser": {"platform": "Win32", "userAgent": "Mozilla/5.0 (Windows NT 6.1; Win64; x64) AppleWebKit/537.36 (KHTML, like Gecko) Chrome/73.0.3683.86 Safari/537.36"}}, "observation": {"11": {"stimulus": 72, "trial": 11, "rt": 2049}, "10": {"stimulus": 80, "trial": 10, "rt": 1969}, "1": {"stimulus": 72, "trial": 1, "rt": 2036}, "0": {"stimulus": 8, "trial": 0, "rt": 4502}, "3": {"stimulus": 0, "trial": 3, "rt": 2041}, "2": {"stimulus": 80, "trial": 2, "rt": 1888}, "5": {"stimulus": 0, "trial": 5, "rt": 38010}, "4": {"stimulus": 8, "trial": 4, "rt": 1697}, "7": {"stimulus": 80, "trial": 7, "rt": 1745}, "6": {"stimulus": 72, "trial": 6, "rt": 1927}, "9": {"stimulus": 0, "trial": 9, "rt": 2280}, "8": {"stimulus": 8, "trial": 8, "rt": 1802}}, "generation": {"1": {"category": "Beta", "trial": 1, "stimulus": 27, "rt": 9131}, "0": {"category": "Beta", "trial": 0, "stimulus": 62, "rt": 13021}, "3": {"category": "Beta", "trial": 3, "stimulus": 38, "rt": 5497}, "2": {"category": "Beta", "trial": 2, "stimulus": 35, "rt": 8368}}, "generalization": {"56": {"stimulus": 54, "trial": 56, "rt": 209, "response": "Alpha"}, "77": {"stimulus": 30, "trial": 77, "rt": 91, "response": "Alpha"}, "54": {"stimulus": 48, "trial": 54, "rt": 141, "response": "Alpha"}, "42": {"stimulus": 68, "trial": 42, "rt": 235, "response": "Alpha"}, "48": {"stimulus": 37, "trial": 48, "rt": 267, "response": "Alpha"}, "43": {"stimulus": 5, "trial": 43, "rt": 224, "response": "Alpha"}, "60": {"stimulus": 50, "trial": 60, "rt": 112, "response": "Alpha"}, "61": {"stimulus": 19, "trial": 61, "rt": 309, "response": "Alpha"}, "62": {"stimulus": 0, "trial": 62, "rt": 105, "response": "Alpha"}, "63": {"stimulus": 49, "trial": 63, "rt": 125, "response": "Alpha"}, "64": {"stimulus": 4, "trial": 64, "rt": 173, "response": "Alpha"}, "49": {"stimulus": 20, "trial": 49, "rt": 141, "response": "Alpha"}, "66": {"stimulus": 25, "trial": 66, "rt": 363, "response": "Alpha"}, "67": {"stimulus": 76, "trial": 67, "rt": 130, "response": "Alpha"}, "68": {"stimulus": 16, "trial": 68, "rt": 71, "response": "Alpha"}, "69": {"stimulus": 15, "trial": 69, "rt": 290, "response": "Alpha"}, "80": {"stimulus": 9, "trial": 80, "rt": 136, "response": "Alpha"}, "52": {"stimulus": 36, "trial": 52, "rt": 234, "response": "Alpha"}, "53": {"stimulus": 12, "trial": 53, "rt": 256, "response": "Alpha"}, "24": {"stimulus": 41, "trial": 24, "rt": 156, "response": "Alpha"}, "25": {"stimulus": 65, "trial": 25, "rt": 232, "response": "Alpha"}, "26": {"stimulus": 77, "trial": 26, "rt": 199, "response": "Alpha"}, "27": {"stimulus": 7, "trial": 27, "rt": 329, "response": "Alpha"}, "20": {"stimulus": 78, "trial": 20, "rt": 362, "response": "Alpha"}, "21": {"stimulus": 17, "trial": 21, "rt": 168, "response": "Alpha"}, "22": {"stimulus": 42, "trial": 22, "rt": 177, "response": "Alpha"}, "23": {"stimulus": 26, "trial": 23, "rt": 162, "response": "Alpha"}, "46": {"stimulus": 8, "trial": 46, "rt": 312, "response": "Alpha"}, "47": {"stimulus": 13, "trial": 47, "rt": 306, "response": "Alpha"}, "44": {"stimulus": 35, "trial": 44, "rt": 210, "response": "Alpha"}, "45": {"stimulus": 21, "trial": 45, "rt": 274, "response": "Alpha"}, "28": {"stimulus": 6, "trial": 28, "rt": 185, "response": "Alpha"}, "29": {"stimulus": 51, "trial": 29, "rt": 358, "response": "Alpha"}, "40": {"stimulus": 70, "trial": 40, "rt": 1544, "response": "Alpha"}, "41": {"stimulus": 73, "trial": 41, "rt": 1033, "response": "Alpha"}, "1": {"stimulus": 63, "trial": 1, "rt": 290, "response": "Alpha"}, "0": {"stimulus": 67, "trial": 0, "rt": 1263, "response": "Alpha"}, "3": {"stimulus": 64, "trial": 3, "rt": 247, "response": "Alpha"}, "2": {"stimulus": 62, "trial": 2, "rt": 118, "response": "Alpha"}, "5": {"stimulus": 69, "trial": 5, "rt": 298, "response": "Alpha"}, "4": {"stimulus": 14, "trial": 4, "rt": 305, "response": "Alpha"}, "7": {"stimulus": 40, "trial": 7, "rt": 1002, "response": "Alpha"}, "6": {"stimulus": 18, "trial": 6, "rt": 839, "response": "Alpha"}, "9": {"stimulus": 56, "trial": 9, "rt": 1768, "response": "Beta"}, "8": {"stimulus": 33, "trial": 8, "rt": 1802, "response": "Beta"}, "78": {"stimulus": 60, "trial": 78, "rt": 159, "response": "Alpha"}, "51": {"stimulus": 29, "trial": 51, "rt": 248, "response": "Alpha"}, "39": {"stimulus": 23, "trial": 39, "rt": 1193, "response": "Alpha"}, "65": {"stimulus": 71, "trial": 65, "rt": 115, "response": "Alpha"}, "76": {"stimulus": 11, "trial": 76, "rt": 249, "response": "Alpha"}, "75": {"stimulus": 45, "trial": 75, "rt": 15122, "response": "Alpha"}, "38": {"stimulus": 43, "trial": 38, "rt": 609, "response": "Alpha"}, "73": {"stimulus": 24, "trial": 73, "rt": 530, "response": "Alpha"}, "72": {"stimulus": 61, "trial": 72, "rt": 24658, "response": "Alpha"}, "71": {"stimulus": 53, "trial": 71, "rt": 138, "response": "Alpha"}, "70": {"stimulus": 38, "trial": 70, "rt": 82, "response": "Alpha"}, "59": {"stimulus": 75, "trial": 59, "rt": 442, "response": "Alpha"}, "79": {"stimulus": 28, "trial": 79, "rt": 99, "response": "Alpha"}, "58": {"stimulus": 34, "trial": 58, "rt": 35317, "response": "Alpha"}, "11": {"stimulus": 58, "trial": 11, "rt": 123, "response": "Alpha"}, "10": {"stimulus": 52, "trial": 10, "rt": 417, "response": "Alpha"}, "13": {"stimulus": 79, "trial": 13, "rt": 317276, "response": "Alpha"}, "12": {"stimulus": 57, "trial": 12, "rt": 223, "response": "Alpha"}, "15": {"stimulus": 10, "trial": 15, "rt": 960, "response": "Alpha"}, "14": {"stimulus": 72, "trial": 14, "rt": 232216, "response": "Alpha"}, "17": {"stimulus": 55, "trial": 17, "rt": 1016, "response": "Alpha"}, "16": {"stimulus": 44, "trial": 16, "rt": 868, "response": "Alpha"}, "19": {"stimulus": 32, "trial": 19, "rt": 152, "response": "Alpha"}, "18": {"stimulus": 46, "trial": 18, "rt": 429, "response": "Alpha"}, "31": {"stimulus": 1, "trial": 31, "rt": 186, "response": "Alpha"}, "30": {"stimulus": 66, "trial": 30, "rt": 111, "response": "Alpha"}, "37": {"stimulus": 47, "trial": 37, "rt": 460, "response": "Alpha"}, "36": {"stimulus": 3, "trial": 36, "rt": 755, "response": "Beta"}, "35": {"stimulus": 27, "trial": 35, "rt": 1467, "response": "Alpha"}, "34": {"stimulus": 31, "trial": 34, "rt": 331, "response": "Alpha"}, "33": {"stimulus": 22, "trial": 33, "rt": 295, "response": "Alpha"}, "55": {"stimulus": 74, "trial": 55, "rt": 233, "response": "Alpha"}, "74": {"stimulus": 0, "trial": 74, "rt": 52784, "response": "Alpha"}, "32": {"stimulus": 2, "trial": 32, "rt": 329, "response": "Alpha"}, "57": {"stimulus": 80, "trial": 57, "rt": 595, "response": "Alpha"}, "50": {"stimulus": 59, "trial": 50, "rt": 151, "response": "Alpha"}}, "experiment": {"Paradigm": "TACL", "Stimuli": "Size-Color Squares and Size-Orientation Circles", "Experiment": "Generating-Multiple-Categories"}, "submit": {"timeTotal": 913415, "age": "33", "comments": "N/A", "sex": "male"}}