{"info": {"finish": 1554515105167, "participant": 63, "exposed": true, "lab": false, "start": 1554514698111, "counterbalance": 3, "stimtype": "Circles", "gentype": 1, "condition": "Corner_C", "browser": {"platform": "MacIntel", "userAgent": "Mozilla/5.0 (Macintosh; Intel Mac OS X 10_13_6) AppleWebKit/537.36 (KHTML, like Gecko) Chrome/73.0.3683.86 Safari/537.36"}}, "observation": {"11": {"stimulus": 8, "trial": 11, "rt": 1915}, "10": {"stimulus": 80, "trial": 10, "rt": 1944}, "1": {"stimulus": 8, "trial": 1, "rt": 5538}, "0": {"stimulus": 0, "trial": 0, "rt": 17739}, "3": {"stimulus": 72, "trial": 3, "rt": 2439}, "2": {"stimulus": 80, "trial": 2, "rt": 3547}, "5": {"stimulus": 72, "trial": 5, "rt": 2404}, "4": {"stimulus": 80, "trial": 4, "rt": 2232}, "7": {"stimulus": 8, "trial": 7, "rt": 2120}, "6": {"stimulus": 0, "trial": 6, "rt": 2162}, "9": {"stimulus": 72, "trial": 9, "rt": 1755}, "8": {"stimulus": 0, "trial": 8, "rt": 2412}}, "generation": {"1": {"category": "Beta", "trial": 1, "stimulus": 19, "rt": 4968}, "0": {"category": "Beta", "trial": 0, "stimulus": 31, "rt": 14825}, "3": {"category": "Beta", "trial": 3, "stimulus": 29, "rt": 6024}, "2": {"category": "Beta", "trial": 2, "stimulus": 43, "rt": 6730}}, "generalization": {"56": {"stimulus": 21, "trial": 56, "rt": 1260, "response": "Beta"}, "77": {"stimulus": 25, "trial": 77, "rt": 865, "response": "Beta"}, "54": {"stimulus": 45, "trial": 54, "rt": 1363, "response": "Alpha"}, "42": {"stimulus": 55, "trial": 42, "rt": 924, "response": "Alpha"}, "48": {"stimulus": 43, "trial": 48, "rt": 656, "response": "Beta"}, "43": {"stimulus": 78, "trial": 43, "rt": 865, "response": "Alpha"}, "60": {"stimulus": 62, "trial": 60, "rt": 535, "response": "Alpha"}, "61": {"stimulus": 63, "trial": 61, "rt": 2630, "response": "Alpha"}, "62": {"stimulus": 4, "trial": 62, "rt": 809, "response": "Alpha"}, "63": {"stimulus": 9, "trial": 63, "rt": 442, "response": "Alpha"}, "64": {"stimulus": 2, "trial": 64, "rt": 432, "response": "Alpha"}, "49": {"stimulus": 51, "trial": 49, "rt": 798, "response": "Alpha"}, "66": {"stimulus": 79, "trial": 66, "rt": 510, "response": "Alpha"}, "67": {"stimulus": 24, "trial": 67, "rt": 774, "response": "Beta"}, "68": {"stimulus": 70, "trial": 68, "rt": 898, "response": "Alpha"}, "69": {"stimulus": 16, "trial": 69, "rt": 1397, "response": "Beta"}, "80": {"stimulus": 77, "trial": 80, "rt": 470, "response": "Alpha"}, "52": {"stimulus": 19, "trial": 52, "rt": 851, "response": "Beta"}, "53": {"stimulus": 34, "trial": 53, "rt": 763, "response": "Beta"}, "24": {"stimulus": 12, "trial": 24, "rt": 1000, "response": "Beta"}, "25": {"stimulus": 6, "trial": 25, "rt": 1381, "response": "Alpha"}, "26": {"stimulus": 40, "trial": 26, "rt": 967, "response": "Beta"}, "27": {"stimulus": 50, "trial": 27, "rt": 1341, "response": "Alpha"}, "20": {"stimulus": 71, "trial": 20, "rt": 704, "response": "Alpha"}, "21": {"stimulus": 17, "trial": 21, "rt": 1245, "response": "Beta"}, "22": {"stimulus": 29, "trial": 22, "rt": 1215, "response": "Beta"}, "23": {"stimulus": 20, "trial": 23, "rt": 1444, "response": "Beta"}, "46": {"stimulus": 15, "trial": 46, "rt": 927, "response": "Beta"}, "47": {"stimulus": 7, "trial": 47, "rt": 552, "response": "Alpha"}, "44": {"stimulus": 35, "trial": 44, "rt": 4279, "response": "Beta"}, "45": {"stimulus": 73, "trial": 45, "rt": 531, "response": "Alpha"}, "28": {"stimulus": 5, "trial": 28, "rt": 1135, "response": "Alpha"}, "29": {"stimulus": 31, "trial": 29, "rt": 1916, "response": "Beta"}, "40": {"stimulus": 10, "trial": 40, "rt": 4309, "response": "Beta"}, "41": {"stimulus": 76, "trial": 41, "rt": 634, "response": "Alpha"}, "1": {"stimulus": 22, "trial": 1, "rt": 1291, "response": "Beta"}, "0": {"stimulus": 75, "trial": 0, "rt": 2523, "response": "Alpha"}, "3": {"stimulus": 14, "trial": 3, "rt": 896, "response": "Beta"}, "2": {"stimulus": 28, "trial": 2, "rt": 1068, "response": "Beta"}, "5": {"stimulus": 72, "trial": 5, "rt": 461, "response": "Alpha"}, "4": {"stimulus": 54, "trial": 4, "rt": 743, "response": "Alpha"}, "7": {"stimulus": 47, "trial": 7, "rt": 850, "response": "Alpha"}, "6": {"stimulus": 46, "trial": 6, "rt": 1622, "response": "Alpha"}, "9": {"stimulus": 60, "trial": 9, "rt": 641, "response": "Alpha"}, "8": {"stimulus": 53, "trial": 8, "rt": 717, "response": "Alpha"}, "78": {"stimulus": 30, "trial": 78, "rt": 584, "response": "Beta"}, "51": {"stimulus": 44, "trial": 51, "rt": 1214, "response": "Beta"}, "39": {"stimulus": 67, "trial": 39, "rt": 1116, "response": "Alpha"}, "65": {"stimulus": 27, "trial": 65, "rt": 758, "response": "Beta"}, "76": {"stimulus": 26, "trial": 76, "rt": 670, "response": "Beta"}, "75": {"stimulus": 3, "trial": 75, "rt": 712, "response": "Alpha"}, "38": {"stimulus": 61, "trial": 38, "rt": 673, "response": "Alpha"}, "73": {"stimulus": 59, "trial": 73, "rt": 542, "response": "Alpha"}, "72": {"stimulus": 41, "trial": 72, "rt": 1173, "response": "Beta"}, "71": {"stimulus": 69, "trial": 71, "rt": 459, "response": "Alpha"}, "70": {"stimulus": 8, "trial": 70, "rt": 701, "response": "Alpha"}, "59": {"stimulus": 1, "trial": 59, "rt": 522, "response": "Alpha"}, "79": {"stimulus": 64, "trial": 79, "rt": 610, "response": "Alpha"}, "58": {"stimulus": 48, "trial": 58, "rt": 1848, "response": "Alpha"}, "11": {"stimulus": 37, "trial": 11, "rt": 801, "response": "Beta"}, "10": {"stimulus": 42, "trial": 10, "rt": 1073, "response": "Beta"}, "13": {"stimulus": 66, "trial": 13, "rt": 834, "response": "Alpha"}, "12": {"stimulus": 13, "trial": 12, "rt": 824, "response": "Beta"}, "15": {"stimulus": 68, "trial": 15, "rt": 533, "response": "Alpha"}, "14": {"stimulus": 58, "trial": 14, "rt": 943, "response": "Alpha"}, "17": {"stimulus": 56, "trial": 17, "rt": 1216, "response": "Alpha"}, "16": {"stimulus": 18, "trial": 16, "rt": 944, "response": "Beta"}, "19": {"stimulus": 0, "trial": 19, "rt": 639, "response": "Alpha"}, "18": {"stimulus": 32, "trial": 18, "rt": 885, "response": "Beta"}, "31": {"stimulus": 0, "trial": 31, "rt": 1046, "response": "Alpha"}, "30": {"stimulus": 33, "trial": 30, "rt": 5511, "response": "Beta"}, "37": {"stimulus": 11, "trial": 37, "rt": 703, "response": "Beta"}, "36": {"stimulus": 80, "trial": 36, "rt": 706, "response": "Alpha"}, "35": {"stimulus": 49, "trial": 35, "rt": 1021, "response": "Alpha"}, "34": {"stimulus": 38, "trial": 34, "rt": 1308, "response": "Beta"}, "33": {"stimulus": 57, "trial": 33, "rt": 959, "response": "Alpha"}, "55": {"stimulus": 74, "trial": 55, "rt": 838, "response": "Alpha"}, "74": {"stimulus": 23, "trial": 74, "rt": 643, "response": "Beta"}, "32": {"stimulus": 65, "trial": 32, "rt": 2371, "response": "Alpha"}, "57": {"stimulus": 52, "trial": 57, "rt": 3925, "response": "Alpha"}, "50": {"stimulus": 36, "trial": 50, "rt": 713, "response": "Beta"}}, "experiment": {"Paradigm": "TACL", "Stimuli": "Size-Color Squares and Size-Orientation Circles", "Experiment": "Generating-Multiple-Categories"}, "submit": {"timeTotal": 407310, "age": "24", "comments": "Thanks for the great HIT!", "sex": "female"}}