{"info": {"finish": 1554516050604, "participant": 64, "exposed": true, "lab": false, "start": 1554515431344, "counterbalance": 6, "stimtype": "Circles", "gentype": 1, "condition": "Corner_C", "browser": {"platform": "Win32", "userAgent": "Mozilla/5.0 (Windows NT 6.1; Win64; x64; rv:66.0) Gecko/20100101 Firefox/66.0"}}, "observation": {"11": {"stimulus": 80, "trial": 11, "rt": 33972}, "10": {"stimulus": 8, "trial": 10, "rt": 6178}, "1": {"stimulus": 72, "trial": 1, "rt": 1739}, "0": {"stimulus": 8, "trial": 0, "rt": 2456}, "3": {"stimulus": 0, "trial": 3, "rt": 1531}, "2": {"stimulus": 80, "trial": 2, "rt": 1517}, "5": {"stimulus": 0, "trial": 5, "rt": 1801}, "4": {"stimulus": 8, "trial": 4, "rt": 1495}, "7": {"stimulus": 80, "trial": 7, "rt": 243842}, "6": {"stimulus": 72, "trial": 6, "rt": 1902}, "9": {"stimulus": 0, "trial": 9, "rt": 3106}, "8": {"stimulus": 72, "trial": 8, "rt": 2601}}, "generation": {"1": {"category": "Beta", "trial": 1, "stimulus": 58, "rt": 14743}, "0": {"category": "Beta", "trial": 0, "stimulus": 75, "rt": 16589}, "3": {"category": "Beta", "trial": 3, "stimulus": 7, "rt": 11133}, "2": {"category": "Beta", "trial": 2, "stimulus": 24, "rt": 23679}}, "generalization": {"56": {"stimulus": 28, "trial": 56, "rt": 836, "response": "Alpha"}, "77": {"stimulus": 19, "trial": 77, "rt": 1054, "response": "Alpha"}, "54": {"stimulus": 26, "trial": 54, "rt": 1217, "response": "Alpha"}, "42": {"stimulus": 71, "trial": 42, "rt": 1029, "response": "Alpha"}, "48": {"stimulus": 72, "trial": 48, "rt": 1247, "response": "Alpha"}, "43": {"stimulus": 11, "trial": 43, "rt": 912, "response": "Alpha"}, "60": {"stimulus": 18, "trial": 60, "rt": 497, "response": "Alpha"}, "61": {"stimulus": 52, "trial": 61, "rt": 1333, "response": "Beta"}, "62": {"stimulus": 41, "trial": 62, "rt": 651, "response": "Beta"}, "63": {"stimulus": 57, "trial": 63, "rt": 1011, "response": "Beta"}, "64": {"stimulus": 12, "trial": 64, "rt": 644, "response": "Beta"}, "49": {"stimulus": 69, "trial": 49, "rt": 812, "response": "Beta"}, "66": {"stimulus": 8, "trial": 66, "rt": 1163, "response": "Alpha"}, "67": {"stimulus": 1, "trial": 67, "rt": 750, "response": "Alpha"}, "68": {"stimulus": 51, "trial": 68, "rt": 1161, "response": "Beta"}, "69": {"stimulus": 80, "trial": 69, "rt": 922, "response": "Alpha"}, "80": {"stimulus": 36, "trial": 80, "rt": 875, "response": "Alpha"}, "52": {"stimulus": 62, "trial": 52, "rt": 1160, "response": "Alpha"}, "53": {"stimulus": 24, "trial": 53, "rt": 866, "response": "Beta"}, "24": {"stimulus": 0, "trial": 24, "rt": 1163, "response": "Alpha"}, "25": {"stimulus": 7, "trial": 25, "rt": 2854, "response": "Beta"}, "26": {"stimulus": 49, "trial": 26, "rt": 789, "response": "Beta"}, "27": {"stimulus": 77, "trial": 27, "rt": 775, "response": "Beta"}, "20": {"stimulus": 31, "trial": 20, "rt": 645, "response": "Beta"}, "21": {"stimulus": 48, "trial": 21, "rt": 883, "response": "Beta"}, "22": {"stimulus": 23, "trial": 22, "rt": 572, "response": "Beta"}, "23": {"stimulus": 61, "trial": 23, "rt": 650, "response": "Beta"}, "46": {"stimulus": 64, "trial": 46, "rt": 928, "response": "Alpha"}, "47": {"stimulus": 43, "trial": 47, "rt": 774, "response": "Beta"}, "44": {"stimulus": 79, "trial": 44, "rt": 983, "response": "Beta"}, "45": {"stimulus": 33, "trial": 45, "rt": 944, "response": "Beta"}, "28": {"stimulus": 58, "trial": 28, "rt": 696, "response": "Beta"}, "29": {"stimulus": 4, "trial": 29, "rt": 669, "response": "Beta"}, "40": {"stimulus": 2, "trial": 40, "rt": 1136, "response": "Alpha"}, "41": {"stimulus": 55, "trial": 41, "rt": 1067, "response": "Alpha"}, "1": {"stimulus": 67, "trial": 1, "rt": 1470, "response": "Beta"}, "0": {"stimulus": 56, "trial": 0, "rt": 5860, "response": "Alpha"}, "3": {"stimulus": 38, "trial": 3, "rt": 936, "response": "Alpha"}, "2": {"stimulus": 68, "trial": 2, "rt": 892, "response": "Beta"}, "5": {"stimulus": 44, "trial": 5, "rt": 1029, "response": "Alpha"}, "4": {"stimulus": 34, "trial": 4, "rt": 2005, "response": "Beta"}, "7": {"stimulus": 73, "trial": 7, "rt": 845, "response": "Alpha"}, "6": {"stimulus": 65, "trial": 6, "rt": 845, "response": "Alpha"}, "9": {"stimulus": 76, "trial": 9, "rt": 1164, "response": "Beta"}, "8": {"stimulus": 15, "trial": 8, "rt": 990, "response": "Beta"}, "78": {"stimulus": 60, "trial": 78, "rt": 784, "response": "Beta"}, "51": {"stimulus": 37, "trial": 51, "rt": 1023, "response": "Alpha"}, "39": {"stimulus": 14, "trial": 39, "rt": 628, "response": "Beta"}, "65": {"stimulus": 42, "trial": 65, "rt": 680, "response": "Beta"}, "76": {"stimulus": 16, "trial": 76, "rt": 592, "response": "Beta"}, "75": {"stimulus": 13, "trial": 75, "rt": 1128, "response": "Beta"}, "38": {"stimulus": 47, "trial": 38, "rt": 3141, "response": "Alpha"}, "73": {"stimulus": 75, "trial": 73, "rt": 919, "response": "Beta"}, "72": {"stimulus": 46, "trial": 72, "rt": 833, "response": "Alpha"}, "71": {"stimulus": 27, "trial": 71, "rt": 828, "response": "Alpha"}, "70": {"stimulus": 6, "trial": 70, "rt": 936, "response": "Beta"}, "59": {"stimulus": 9, "trial": 59, "rt": 510, "response": "Alpha"}, "79": {"stimulus": 45, "trial": 79, "rt": 858, "response": "Alpha"}, "58": {"stimulus": 17, "trial": 58, "rt": 582, "response": "Alpha"}, "11": {"stimulus": 21, "trial": 11, "rt": 1826, "response": "Beta"}, "10": {"stimulus": 63, "trial": 10, "rt": 1357, "response": "Alpha"}, "13": {"stimulus": 53, "trial": 13, "rt": 2319, "response": "Alpha"}, "12": {"stimulus": 29, "trial": 12, "rt": 1122, "response": "Alpha"}, "15": {"stimulus": 35, "trial": 15, "rt": 1068, "response": "Alpha"}, "14": {"stimulus": 25, "trial": 14, "rt": 1159, "response": "Beta"}, "17": {"stimulus": 10, "trial": 17, "rt": 738, "response": "Alpha"}, "16": {"stimulus": 5, "trial": 16, "rt": 1079, "response": "Beta"}, "19": {"stimulus": 30, "trial": 19, "rt": 1074, "response": "Beta"}, "18": {"stimulus": 59, "trial": 18, "rt": 1075, "response": "Beta"}, "31": {"stimulus": 50, "trial": 31, "rt": 688, "response": "Beta"}, "30": {"stimulus": 66, "trial": 30, "rt": 929, "response": "Beta"}, "37": {"stimulus": 22, "trial": 37, "rt": 626, "response": "Beta"}, "36": {"stimulus": 78, "trial": 36, "rt": 683, "response": "Beta"}, "35": {"stimulus": 70, "trial": 35, "rt": 1030, "response": "Beta"}, "34": {"stimulus": 20, "trial": 34, "rt": 928, "response": "Alpha"}, "33": {"stimulus": 74, "trial": 33, "rt": 22236, "response": "Alpha"}, "55": {"stimulus": 32, "trial": 55, "rt": 820, "response": "Beta"}, "74": {"stimulus": 0, "trial": 74, "rt": 823, "response": "Alpha"}, "32": {"stimulus": 40, "trial": 32, "rt": 683, "response": "Beta"}, "57": {"stimulus": 54, "trial": 57, "rt": 580, "response": "Alpha"}, "50": {"stimulus": 3, "trial": 50, "rt": 1703, "response": "Beta"}}, "experiment": {"Paradigm": "TACL", "Stimuli": "Size-Color Squares and Size-Orientation Circles", "Experiment": "Generating-Multiple-Categories"}, "submit": {"timeTotal": 619786, "age": "39", "comments": "none", "sex": "male"}}