{"info": {"finish": 1554516124864, "participant": 65, "exposed": true, "lab": false, "start": 1554515451134, "counterbalance": 6, "stimtype": "Squares", "gentype": 1, "condition": "Corner_S", "browser": {"platform": "Win32", "userAgent": "Mozilla/5.0 (Windows NT 10.0; Win64; x64) AppleWebKit/537.36 (KHTML, like Gecko) Chrome/73.0.3683.86 Safari/537.36"}}, "observation": {"11": {"stimulus": 8, "trial": 11, "rt": 1915}, "10": {"stimulus": 80, "trial": 10, "rt": 1443}, "1": {"stimulus": 8, "trial": 1, "rt": 3303}, "0": {"stimulus": 80, "trial": 0, "rt": 2449}, "3": {"stimulus": 0, "trial": 3, "rt": 1402}, "2": {"stimulus": 72, "trial": 2, "rt": 1813}, "5": {"stimulus": 8, "trial": 5, "rt": 1402}, "4": {"stimulus": 72, "trial": 4, "rt": 1486}, "7": {"stimulus": 0, "trial": 7, "rt": 1383}, "6": {"stimulus": 80, "trial": 6, "rt": 1380}, "9": {"stimulus": 72, "trial": 9, "rt": 1519}, "8": {"stimulus": 0, "trial": 8, "rt": 1414}}, "generation": {"1": {"category": "Beta", "trial": 1, "stimulus": 32, "rt": 418149}, "0": {"category": "Beta", "trial": 0, "stimulus": 76, "rt": 18873}, "3": {"category": "Beta", "trial": 3, "stimulus": 6, "rt": 4580}, "2": {"category": "Beta", "trial": 2, "stimulus": 40, "rt": 9011}}, "generalization": {"56": {"stimulus": 48, "trial": 56, "rt": 923, "response": "Beta"}, "77": {"stimulus": 17, "trial": 77, "rt": 1013, "response": "Alpha"}, "54": {"stimulus": 80, "trial": 54, "rt": 763, "response": "Alpha"}, "42": {"stimulus": 6, "trial": 42, "rt": 886, "response": "Beta"}, "48": {"stimulus": 61, "trial": 48, "rt": 1082, "response": "Alpha"}, "43": {"stimulus": 21, "trial": 43, "rt": 1000, "response": "Beta"}, "60": {"stimulus": 46, "trial": 60, "rt": 863, "response": "Alpha"}, "61": {"stimulus": 71, "trial": 61, "rt": 957, "response": "Alpha"}, "62": {"stimulus": 1, "trial": 62, "rt": 731, "response": "Alpha"}, "63": {"stimulus": 57, "trial": 63, "rt": 733, "response": "Beta"}, "64": {"stimulus": 7, "trial": 64, "rt": 991, "response": "Beta"}, "49": {"stimulus": 16, "trial": 49, "rt": 985, "response": "Alpha"}, "66": {"stimulus": 19, "trial": 66, "rt": 880, "response": "Alpha"}, "67": {"stimulus": 11, "trial": 67, "rt": 898, "response": "Beta"}, "68": {"stimulus": 50, "trial": 68, "rt": 1350, "response": "Beta"}, "69": {"stimulus": 33, "trial": 69, "rt": 821, "response": "Beta"}, "80": {"stimulus": 8, "trial": 80, "rt": 1113, "response": "Alpha"}, "52": {"stimulus": 70, "trial": 52, "rt": 1679, "response": "Beta"}, "53": {"stimulus": 26, "trial": 53, "rt": 814, "response": "Alpha"}, "24": {"stimulus": 76, "trial": 24, "rt": 682, "response": "Beta"}, "25": {"stimulus": 28, "trial": 25, "rt": 850, "response": "Alpha"}, "26": {"stimulus": 53, "trial": 26, "rt": 1380, "response": "Alpha"}, "27": {"stimulus": 22, "trial": 27, "rt": 812, "response": "Beta"}, "20": {"stimulus": 29, "trial": 20, "rt": 847, "response": "Beta"}, "21": {"stimulus": 45, "trial": 21, "rt": 1403, "response": "Alpha"}, "22": {"stimulus": 59, "trial": 22, "rt": 1567, "response": "Beta"}, "23": {"stimulus": 49, "trial": 23, "rt": 1480, "response": "Beta"}, "46": {"stimulus": 24, "trial": 46, "rt": 1219, "response": "Beta"}, "47": {"stimulus": 65, "trial": 47, "rt": 1210, "response": "Alpha"}, "44": {"stimulus": 52, "trial": 44, "rt": 1076, "response": "Alpha"}, "45": {"stimulus": 0, "trial": 45, "rt": 1064, "response": "Alpha"}, "28": {"stimulus": 20, "trial": 28, "rt": 834, "response": "Beta"}, "29": {"stimulus": 79, "trial": 29, "rt": 1058, "response": "Beta"}, "40": {"stimulus": 23, "trial": 40, "rt": 1409, "response": "Beta"}, "41": {"stimulus": 40, "trial": 41, "rt": 735, "response": "Beta"}, "1": {"stimulus": 55, "trial": 1, "rt": 1014, "response": "Alpha"}, "0": {"stimulus": 54, "trial": 0, "rt": 2314, "response": "Alpha"}, "3": {"stimulus": 10, "trial": 3, "rt": 1322, "response": "Alpha"}, "2": {"stimulus": 25, "trial": 2, "rt": 1169, "response": "Beta"}, "5": {"stimulus": 35, "trial": 5, "rt": 1652, "response": "Alpha"}, "4": {"stimulus": 72, "trial": 4, "rt": 666, "response": "Alpha"}, "7": {"stimulus": 60, "trial": 7, "rt": 1179, "response": "Beta"}, "6": {"stimulus": 0, "trial": 6, "rt": 700, "response": "Alpha"}, "9": {"stimulus": 47, "trial": 9, "rt": 1529, "response": "Beta"}, "8": {"stimulus": 18, "trial": 8, "rt": 643, "response": "Alpha"}, "78": {"stimulus": 14, "trial": 78, "rt": 873, "response": "Beta"}, "51": {"stimulus": 77, "trial": 51, "rt": 1086, "response": "Beta"}, "39": {"stimulus": 9, "trial": 39, "rt": 1006, "response": "Alpha"}, "65": {"stimulus": 34, "trial": 65, "rt": 746, "response": "Beta"}, "76": {"stimulus": 74, "trial": 76, "rt": 908, "response": "Beta"}, "75": {"stimulus": 13, "trial": 75, "rt": 692, "response": "Beta"}, "38": {"stimulus": 78, "trial": 38, "rt": 906, "response": "Beta"}, "73": {"stimulus": 36, "trial": 73, "rt": 1166, "response": "Alpha"}, "72": {"stimulus": 58, "trial": 72, "rt": 1083, "response": "Beta"}, "71": {"stimulus": 32, "trial": 71, "rt": 1745, "response": "Beta"}, "70": {"stimulus": 63, "trial": 70, "rt": 797, "response": "Alpha"}, "59": {"stimulus": 51, "trial": 59, "rt": 772, "response": "Beta"}, "79": {"stimulus": 2, "trial": 79, "rt": 1222, "response": "Alpha"}, "58": {"stimulus": 15, "trial": 58, "rt": 1955, "response": "Beta"}, "11": {"stimulus": 73, "trial": 11, "rt": 860, "response": "Alpha"}, "10": {"stimulus": 30, "trial": 10, "rt": 851, "response": "Beta"}, "13": {"stimulus": 5, "trial": 13, "rt": 1407, "response": "Beta"}, "12": {"stimulus": 43, "trial": 12, "rt": 1199, "response": "Beta"}, "15": {"stimulus": 56, "trial": 15, "rt": 1387, "response": "Beta"}, "14": {"stimulus": 3, "trial": 14, "rt": 1677, "response": "Beta"}, "17": {"stimulus": 75, "trial": 17, "rt": 948, "response": "Beta"}, "16": {"stimulus": 44, "trial": 16, "rt": 1366, "response": "Alpha"}, "19": {"stimulus": 38, "trial": 19, "rt": 1154, "response": "Beta"}, "18": {"stimulus": 62, "trial": 18, "rt": 2073, "response": "Alpha"}, "31": {"stimulus": 41, "trial": 31, "rt": 1056, "response": "Beta"}, "30": {"stimulus": 67, "trial": 30, "rt": 1003, "response": "Beta"}, "37": {"stimulus": 12, "trial": 37, "rt": 989, "response": "Beta"}, "36": {"stimulus": 42, "trial": 36, "rt": 656, "response": "Beta"}, "35": {"stimulus": 68, "trial": 35, "rt": 599, "response": "Beta"}, "34": {"stimulus": 31, "trial": 34, "rt": 675, "response": "Beta"}, "33": {"stimulus": 4, "trial": 33, "rt": 611, "response": "Beta"}, "55": {"stimulus": 64, "trial": 55, "rt": 1005, "response": "Alpha"}, "74": {"stimulus": 69, "trial": 74, "rt": 1036, "response": "Beta"}, "32": {"stimulus": 66, "trial": 32, "rt": 820, "response": "Beta"}, "57": {"stimulus": 27, "trial": 57, "rt": 917, "response": "Alpha"}, "50": {"stimulus": 37, "trial": 50, "rt": 970, "response": "Alpha"}}, "experiment": {"Paradigm": "TACL", "Stimuli": "Size-Color Squares and Size-Orientation Circles", "Experiment": "Generating-Multiple-Categories"}, "submit": {"timeTotal": 673960, "age": "23", "comments": "", "sex": "Male"}}