{"info": {"finish": 1554515975327, "participant": 66, "exposed": true, "lab": false, "start": 1554515470258, "counterbalance": 6, "stimtype": "Squares", "gentype": 1, "condition": "Corner_S", "browser": {"platform": "Win32", "userAgent": "Mozilla/5.0 (Windows NT 10.0; Win64; x64; rv:66.0) Gecko/20100101 Firefox/66.0"}}, "observation": {"11": {"stimulus": 72, "trial": 11, "rt": 3485}, "10": {"stimulus": 8, "trial": 10, "rt": 3926}, "1": {"stimulus": 80, "trial": 1, "rt": 5276}, "0": {"stimulus": 0, "trial": 0, "rt": 7790}, "3": {"stimulus": 72, "trial": 3, "rt": 4540}, "2": {"stimulus": 8, "trial": 2, "rt": 4668}, "5": {"stimulus": 0, "trial": 5, "rt": 3712}, "4": {"stimulus": 72, "trial": 4, "rt": 3503}, "7": {"stimulus": 80, "trial": 7, "rt": 3970}, "6": {"stimulus": 8, "trial": 6, "rt": 3191}, "9": {"stimulus": 0, "trial": 9, "rt": 2283}, "8": {"stimulus": 80, "trial": 8, "rt": 2455}}, "generation": {"1": {"category": "Beta", "trial": 1, "stimulus": 70, "rt": 20187}, "0": {"category": "Beta", "trial": 0, "stimulus": 80, "rt": 56726}, "3": {"category": "Beta", "trial": 3, "stimulus": 40, "rt": 17856}, "2": {"category": "Beta", "trial": 2, "stimulus": 59, "rt": 25132}}, "generalization": {"56": {"stimulus": 11, "trial": 56, "rt": 1040, "response": "Alpha"}, "77": {"stimulus": 21, "trial": 77, "rt": 894, "response": "Alpha"}, "54": {"stimulus": 25, "trial": 54, "rt": 899, "response": "Alpha"}, "42": {"stimulus": 64, "trial": 42, "rt": 1424, "response": "Alpha"}, "48": {"stimulus": 38, "trial": 48, "rt": 522, "response": "Alpha"}, "43": {"stimulus": 22, "trial": 43, "rt": 871, "response": "Alpha"}, "60": {"stimulus": 18, "trial": 60, "rt": 857, "response": "Alpha"}, "61": {"stimulus": 49, "trial": 61, "rt": 755, "response": "Alpha"}, "62": {"stimulus": 6, "trial": 62, "rt": 929, "response": "Alpha"}, "63": {"stimulus": 33, "trial": 63, "rt": 5136, "response": "Alpha"}, "64": {"stimulus": 31, "trial": 64, "rt": 986, "response": "Alpha"}, "49": {"stimulus": 10, "trial": 49, "rt": 799, "response": "Alpha"}, "66": {"stimulus": 61, "trial": 66, "rt": 1154, "response": "Alpha"}, "67": {"stimulus": 27, "trial": 67, "rt": 1029, "response": "Alpha"}, "68": {"stimulus": 20, "trial": 68, "rt": 1185, "response": "Alpha"}, "69": {"stimulus": 55, "trial": 69, "rt": 1867, "response": "Alpha"}, "80": {"stimulus": 41, "trial": 80, "rt": 1145, "response": "Alpha"}, "52": {"stimulus": 75, "trial": 52, "rt": 618, "response": "Alpha"}, "53": {"stimulus": 67, "trial": 53, "rt": 2036, "response": "Alpha"}, "24": {"stimulus": 56, "trial": 24, "rt": 2160, "response": "Alpha"}, "25": {"stimulus": 62, "trial": 25, "rt": 1508, "response": "Alpha"}, "26": {"stimulus": 45, "trial": 26, "rt": 1022, "response": "Alpha"}, "27": {"stimulus": 69, "trial": 27, "rt": 3120, "response": "Beta"}, "20": {"stimulus": 42, "trial": 20, "rt": 2970, "response": "Alpha"}, "21": {"stimulus": 65, "trial": 21, "rt": 4510, "response": "Alpha"}, "22": {"stimulus": 19, "trial": 22, "rt": 972, "response": "Alpha"}, "23": {"stimulus": 60, "trial": 23, "rt": 1911, "response": "Beta"}, "46": {"stimulus": 59, "trial": 46, "rt": 4608, "response": "Beta"}, "47": {"stimulus": 48, "trial": 47, "rt": 1083, "response": "Alpha"}, "44": {"stimulus": 73, "trial": 44, "rt": 1304, "response": "Alpha"}, "45": {"stimulus": 50, "trial": 45, "rt": 2232, "response": "Alpha"}, "28": {"stimulus": 71, "trial": 28, "rt": 6920, "response": "Alpha"}, "29": {"stimulus": 14, "trial": 29, "rt": 716, "response": "Alpha"}, "40": {"stimulus": 0, "trial": 40, "rt": 1142, "response": "Alpha"}, "41": {"stimulus": 5, "trial": 41, "rt": 784, "response": "Alpha"}, "1": {"stimulus": 24, "trial": 1, "rt": 4276, "response": "Alpha"}, "0": {"stimulus": 57, "trial": 0, "rt": 22475, "response": "Beta"}, "3": {"stimulus": 79, "trial": 3, "rt": 3638, "response": "Beta"}, "2": {"stimulus": 44, "trial": 2, "rt": 4213, "response": "Alpha"}, "5": {"stimulus": 53, "trial": 5, "rt": 1547, "response": "Alpha"}, "4": {"stimulus": 66, "trial": 4, "rt": 4188, "response": "Alpha"}, "7": {"stimulus": 52, "trial": 7, "rt": 2277, "response": "Alpha"}, "6": {"stimulus": 63, "trial": 6, "rt": 2555, "response": "Alpha"}, "9": {"stimulus": 34, "trial": 9, "rt": 1480, "response": "Alpha"}, "8": {"stimulus": 78, "trial": 8, "rt": 2463, "response": "Beta"}, "78": {"stimulus": 46, "trial": 78, "rt": 878, "response": "Alpha"}, "51": {"stimulus": 12, "trial": 51, "rt": 685, "response": "Alpha"}, "39": {"stimulus": 77, "trial": 39, "rt": 1580, "response": "Beta"}, "65": {"stimulus": 74, "trial": 65, "rt": 1797, "response": "Alpha"}, "76": {"stimulus": 7, "trial": 76, "rt": 906, "response": "Alpha"}, "75": {"stimulus": 40, "trial": 75, "rt": 921, "response": "Alpha"}, "38": {"stimulus": 2, "trial": 38, "rt": 1444, "response": "Alpha"}, "73": {"stimulus": 28, "trial": 73, "rt": 951, "response": "Alpha"}, "72": {"stimulus": 23, "trial": 72, "rt": 1033, "response": "Alpha"}, "71": {"stimulus": 16, "trial": 71, "rt": 1082, "response": "Alpha"}, "70": {"stimulus": 30, "trial": 70, "rt": 1137, "response": "Alpha"}, "59": {"stimulus": 35, "trial": 59, "rt": 1084, "response": "Alpha"}, "79": {"stimulus": 68, "trial": 79, "rt": 1662, "response": "Beta"}, "58": {"stimulus": 0, "trial": 58, "rt": 1113, "response": "Alpha"}, "11": {"stimulus": 47, "trial": 11, "rt": 2056, "response": "Alpha"}, "10": {"stimulus": 13, "trial": 10, "rt": 1302, "response": "Alpha"}, "13": {"stimulus": 1, "trial": 13, "rt": 881, "response": "Alpha"}, "12": {"stimulus": 4, "trial": 12, "rt": 1193, "response": "Alpha"}, "15": {"stimulus": 43, "trial": 15, "rt": 1037, "response": "Alpha"}, "14": {"stimulus": 80, "trial": 14, "rt": 2750, "response": "Beta"}, "17": {"stimulus": 15, "trial": 17, "rt": 853, "response": "Alpha"}, "16": {"stimulus": 26, "trial": 16, "rt": 748, "response": "Alpha"}, "19": {"stimulus": 9, "trial": 19, "rt": 1054, "response": "Alpha"}, "18": {"stimulus": 37, "trial": 18, "rt": 1801, "response": "Alpha"}, "31": {"stimulus": 29, "trial": 31, "rt": 612, "response": "Alpha"}, "30": {"stimulus": 58, "trial": 30, "rt": 549, "response": "Alpha"}, "37": {"stimulus": 3, "trial": 37, "rt": 902, "response": "Alpha"}, "36": {"stimulus": 36, "trial": 36, "rt": 879, "response": "Alpha"}, "35": {"stimulus": 54, "trial": 35, "rt": 1352, "response": "Alpha"}, "34": {"stimulus": 8, "trial": 34, "rt": 1043, "response": "Alpha"}, "33": {"stimulus": 51, "trial": 33, "rt": 1067, "response": "Alpha"}, "55": {"stimulus": 76, "trial": 55, "rt": 3182, "response": "Beta"}, "74": {"stimulus": 72, "trial": 74, "rt": 1375, "response": "Alpha"}, "32": {"stimulus": 70, "trial": 32, "rt": 697, "response": "Alpha"}, "57": {"stimulus": 32, "trial": 57, "rt": 926, "response": "Alpha"}, "50": {"stimulus": 17, "trial": 50, "rt": 971, "response": "Alpha"}}, "experiment": {"Paradigm": "TACL", "Stimuli": "Size-Color Squares and Size-Orientation Circles", "Experiment": "Generating-Multiple-Categories"}, "submit": {"timeTotal": 505717, "age": "34", "comments": "Challenging!", "sex": "male"}}