{"info": {"finish": 1554515914163, "participant": 67, "exposed": true, "lab": false, "start": 1554515521074, "counterbalance": 1, "stimtype": "Squares", "gentype": 1, "condition": "Corner_S", "browser": {"platform": "Win32", "userAgent": "Mozilla/5.0 (Windows NT 10.0; Win64; x64) AppleWebKit/537.36 (KHTML, like Gecko) Chrome/73.0.3683.86 Safari/537.36"}}, "observation": {"11": {"stimulus": 80, "trial": 11, "rt": 1677}, "10": {"stimulus": 72, "trial": 10, "rt": 3820}, "1": {"stimulus": 72, "trial": 1, "rt": 2299}, "0": {"stimulus": 8, "trial": 0, "rt": 3884}, "3": {"stimulus": 0, "trial": 3, "rt": 3025}, "2": {"stimulus": 80, "trial": 2, "rt": 2293}, "5": {"stimulus": 8, "trial": 5, "rt": 2326}, "4": {"stimulus": 0, "trial": 4, "rt": 2605}, "7": {"stimulus": 72, "trial": 7, "rt": 2338}, "6": {"stimulus": 80, "trial": 6, "rt": 1731}, "9": {"stimulus": 0, "trial": 9, "rt": 2948}, "8": {"stimulus": 8, "trial": 8, "rt": 3086}}, "generation": {"1": {"category": "Beta", "trial": 1, "stimulus": 0, "rt": 16350}, "0": {"category": "Beta", "trial": 0, "stimulus": 3, "rt": 12085}, "3": {"category": "Beta", "trial": 3, "stimulus": 24, "rt": 5967}, "2": {"category": "Beta", "trial": 2, "stimulus": 8, "rt": 6989}}, "generalization": {"56": {"stimulus": 54, "trial": 56, "rt": 1326, "response": "Beta"}, "77": {"stimulus": 50, "trial": 77, "rt": 1026, "response": "Beta"}, "54": {"stimulus": 47, "trial": 54, "rt": 2332, "response": "Beta"}, "42": {"stimulus": 25, "trial": 42, "rt": 2316, "response": "Alpha"}, "48": {"stimulus": 55, "trial": 48, "rt": 1668, "response": "Beta"}, "43": {"stimulus": 60, "trial": 43, "rt": 1280, "response": "Beta"}, "60": {"stimulus": 14, "trial": 60, "rt": 698, "response": "Alpha"}, "61": {"stimulus": 4, "trial": 61, "rt": 1080, "response": "Alpha"}, "62": {"stimulus": 0, "trial": 62, "rt": 4979, "response": "Alpha"}, "63": {"stimulus": 45, "trial": 63, "rt": 2833, "response": "Beta"}, "64": {"stimulus": 15, "trial": 64, "rt": 2363, "response": "Alpha"}, "49": {"stimulus": 73, "trial": 49, "rt": 1172, "response": "Alpha"}, "66": {"stimulus": 12, "trial": 66, "rt": 1215, "response": "Alpha"}, "67": {"stimulus": 27, "trial": 67, "rt": 2115, "response": "Beta"}, "68": {"stimulus": 79, "trial": 68, "rt": 1290, "response": "Alpha"}, "69": {"stimulus": 67, "trial": 69, "rt": 1326, "response": "Beta"}, "80": {"stimulus": 57, "trial": 80, "rt": 900, "response": "Beta"}, "52": {"stimulus": 37, "trial": 52, "rt": 1109, "response": "Beta"}, "53": {"stimulus": 10, "trial": 53, "rt": 2824, "response": "Alpha"}, "24": {"stimulus": 40, "trial": 24, "rt": 926, "response": "Alpha"}, "25": {"stimulus": 69, "trial": 25, "rt": 1544, "response": "Alpha"}, "26": {"stimulus": 9, "trial": 26, "rt": 1011, "response": "Beta"}, "27": {"stimulus": 51, "trial": 27, "rt": 2810, "response": "Beta"}, "20": {"stimulus": 22, "trial": 20, "rt": 1445, "response": "Alpha"}, "21": {"stimulus": 43, "trial": 21, "rt": 1430, "response": "Beta"}, "22": {"stimulus": 17, "trial": 22, "rt": 1318, "response": "Alpha"}, "23": {"stimulus": 21, "trial": 23, "rt": 818, "response": "Alpha"}, "46": {"stimulus": 33, "trial": 46, "rt": 1072, "response": "Beta"}, "47": {"stimulus": 68, "trial": 47, "rt": 2013, "response": "Beta"}, "44": {"stimulus": 16, "trial": 44, "rt": 1547, "response": "Alpha"}, "45": {"stimulus": 42, "trial": 45, "rt": 1944, "response": "Beta"}, "28": {"stimulus": 2, "trial": 28, "rt": 1162, "response": "Alpha"}, "29": {"stimulus": 13, "trial": 29, "rt": 914, "response": "Alpha"}, "40": {"stimulus": 58, "trial": 40, "rt": 1087, "response": "Beta"}, "41": {"stimulus": 52, "trial": 41, "rt": 1074, "response": "Beta"}, "1": {"stimulus": 49, "trial": 1, "rt": 1238, "response": "Beta"}, "0": {"stimulus": 72, "trial": 0, "rt": 1726, "response": "Alpha"}, "3": {"stimulus": 18, "trial": 3, "rt": 993, "response": "Alpha"}, "2": {"stimulus": 3, "trial": 2, "rt": 1086, "response": "Beta"}, "5": {"stimulus": 26, "trial": 5, "rt": 1540, "response": "Beta"}, "4": {"stimulus": 29, "trial": 4, "rt": 782, "response": "Alpha"}, "7": {"stimulus": 20, "trial": 7, "rt": 1582, "response": "Beta"}, "6": {"stimulus": 74, "trial": 6, "rt": 955, "response": "Alpha"}, "9": {"stimulus": 53, "trial": 9, "rt": 1549, "response": "Beta"}, "8": {"stimulus": 71, "trial": 8, "rt": 2260, "response": "Beta"}, "78": {"stimulus": 0, "trial": 78, "rt": 822, "response": "Alpha"}, "51": {"stimulus": 63, "trial": 51, "rt": 1043, "response": "Alpha"}, "39": {"stimulus": 76, "trial": 39, "rt": 788, "response": "Alpha"}, "65": {"stimulus": 35, "trial": 65, "rt": 1746, "response": "Beta"}, "76": {"stimulus": 8, "trial": 76, "rt": 1132, "response": "Alpha"}, "75": {"stimulus": 28, "trial": 75, "rt": 810, "response": "Beta"}, "38": {"stimulus": 65, "trial": 38, "rt": 1346, "response": "Alpha"}, "73": {"stimulus": 41, "trial": 73, "rt": 1040, "response": "Beta"}, "72": {"stimulus": 56, "trial": 72, "rt": 1386, "response": "Beta"}, "71": {"stimulus": 34, "trial": 71, "rt": 1274, "response": "Beta"}, "70": {"stimulus": 77, "trial": 70, "rt": 1326, "response": "Alpha"}, "59": {"stimulus": 38, "trial": 59, "rt": 1145, "response": "Beta"}, "79": {"stimulus": 59, "trial": 79, "rt": 1228, "response": "Beta"}, "58": {"stimulus": 6, "trial": 58, "rt": 950, "response": "Alpha"}, "11": {"stimulus": 5, "trial": 11, "rt": 1595, "response": "Alpha"}, "10": {"stimulus": 36, "trial": 10, "rt": 2111, "response": "Beta"}, "13": {"stimulus": 62, "trial": 13, "rt": 847, "response": "Beta"}, "12": {"stimulus": 48, "trial": 12, "rt": 1138, "response": "Beta"}, "15": {"stimulus": 11, "trial": 15, "rt": 2892, "response": "Alpha"}, "14": {"stimulus": 64, "trial": 14, "rt": 1708, "response": "Beta"}, "17": {"stimulus": 1, "trial": 17, "rt": 686, "response": "Alpha"}, "16": {"stimulus": 70, "trial": 16, "rt": 2107, "response": "Alpha"}, "19": {"stimulus": 80, "trial": 19, "rt": 1177, "response": "Alpha"}, "18": {"stimulus": 66, "trial": 18, "rt": 2300, "response": "Beta"}, "31": {"stimulus": 75, "trial": 31, "rt": 1207, "response": "Alpha"}, "30": {"stimulus": 19, "trial": 30, "rt": 936, "response": "Alpha"}, "37": {"stimulus": 31, "trial": 37, "rt": 1106, "response": "Alpha"}, "36": {"stimulus": 32, "trial": 36, "rt": 1658, "response": "Beta"}, "35": {"stimulus": 44, "trial": 35, "rt": 5531, "response": "Beta"}, "34": {"stimulus": 78, "trial": 34, "rt": 1289, "response": "Alpha"}, "33": {"stimulus": 24, "trial": 33, "rt": 1177, "response": "Beta"}, "55": {"stimulus": 61, "trial": 55, "rt": 937, "response": "Beta"}, "74": {"stimulus": 46, "trial": 74, "rt": 640, "response": "Beta"}, "32": {"stimulus": 7, "trial": 32, "rt": 1011, "response": "Alpha"}, "57": {"stimulus": 30, "trial": 57, "rt": 1149, "response": "Beta"}, "50": {"stimulus": 23, "trial": 50, "rt": 967, "response": "Alpha"}}, "experiment": {"Paradigm": "TACL", "Stimuli": "Size-Color Squares and Size-Orientation Circles", "Experiment": "Generating-Multiple-Categories"}, "submit": {"timeTotal": 393554, "age": "34", "comments": "", "sex": "male"}}