{"info": {"finish": 1554516291278, "participant": 69, "exposed": true, "lab": false, "start": 1554515657228, "counterbalance": 5, "stimtype": "Squares", "gentype": 1, "condition": "Corner_S", "browser": {"platform": "Win32", "userAgent": "Mozilla/5.0 (Windows NT 10.0; Win64; x64) AppleWebKit/537.36 (KHTML, like Gecko) Chrome/73.0.3683.86 Safari/537.36"}}, "observation": {"11": {"stimulus": 80, "trial": 11, "rt": 2316}, "10": {"stimulus": 0, "trial": 10, "rt": 1164}, "1": {"stimulus": 0, "trial": 1, "rt": 4958}, "0": {"stimulus": 80, "trial": 0, "rt": 5445}, "3": {"stimulus": 72, "trial": 3, "rt": 4132}, "2": {"stimulus": 8, "trial": 2, "rt": 2321}, "5": {"stimulus": 80, "trial": 5, "rt": 2874}, "4": {"stimulus": 0, "trial": 4, "rt": 2736}, "7": {"stimulus": 8, "trial": 7, "rt": 2507}, "6": {"stimulus": 72, "trial": 6, "rt": 4932}, "9": {"stimulus": 72, "trial": 9, "rt": 3843}, "8": {"stimulus": 8, "trial": 8, "rt": 2238}}, "generation": {"1": {"category": "Beta", "trial": 1, "stimulus": 64, "rt": 21524}, "0": {"category": "Beta", "trial": 0, "stimulus": 72, "rt": 49071}, "3": {"category": "Beta", "trial": 3, "stimulus": 40, "rt": 39416}, "2": {"category": "Beta", "trial": 2, "stimulus": 56, "rt": 11703}}, "generalization": {"56": {"stimulus": 66, "trial": 56, "rt": 1790, "response": "Beta"}, "77": {"stimulus": 57, "trial": 77, "rt": 2981, "response": "Beta"}, "54": {"stimulus": 62, "trial": 54, "rt": 2501, "response": "Alpha"}, "42": {"stimulus": 49, "trial": 42, "rt": 4543, "response": "Beta"}, "48": {"stimulus": 69, "trial": 48, "rt": 2452, "response": "Beta"}, "43": {"stimulus": 71, "trial": 43, "rt": 1862, "response": "Beta"}, "60": {"stimulus": 0, "trial": 60, "rt": 912, "response": "Alpha"}, "61": {"stimulus": 75, "trial": 61, "rt": 6513, "response": "Beta"}, "62": {"stimulus": 21, "trial": 62, "rt": 1374, "response": "Alpha"}, "63": {"stimulus": 10, "trial": 63, "rt": 868, "response": "Alpha"}, "64": {"stimulus": 13, "trial": 64, "rt": 886, "response": "Alpha"}, "49": {"stimulus": 47, "trial": 49, "rt": 2834, "response": "Beta"}, "66": {"stimulus": 6, "trial": 66, "rt": 1105, "response": "Alpha"}, "67": {"stimulus": 30, "trial": 67, "rt": 1044, "response": "Alpha"}, "68": {"stimulus": 56, "trial": 68, "rt": 1436, "response": "Alpha"}, "69": {"stimulus": 78, "trial": 69, "rt": 2547, "response": "Beta"}, "80": {"stimulus": 61, "trial": 80, "rt": 3288, "response": "Alpha"}, "52": {"stimulus": 25, "trial": 52, "rt": 967, "response": "Alpha"}, "53": {"stimulus": 38, "trial": 53, "rt": 4129, "response": "Alpha"}, "24": {"stimulus": 33, "trial": 24, "rt": 1100, "response": "Alpha"}, "25": {"stimulus": 27, "trial": 25, "rt": 1536, "response": "Alpha"}, "26": {"stimulus": 80, "trial": 26, "rt": 3141, "response": "Beta"}, "27": {"stimulus": 59, "trial": 27, "rt": 1865, "response": "Beta"}, "20": {"stimulus": 42, "trial": 20, "rt": 2038, "response": "Beta"}, "21": {"stimulus": 53, "trial": 21, "rt": 1267, "response": "Beta"}, "22": {"stimulus": 18, "trial": 22, "rt": 2603, "response": "Alpha"}, "23": {"stimulus": 19, "trial": 23, "rt": 1614, "response": "Alpha"}, "46": {"stimulus": 55, "trial": 46, "rt": 2206, "response": "Alpha"}, "47": {"stimulus": 11, "trial": 47, "rt": 1113, "response": "Alpha"}, "44": {"stimulus": 50, "trial": 44, "rt": 3779, "response": "Beta"}, "45": {"stimulus": 60, "trial": 45, "rt": 2978, "response": "Alpha"}, "28": {"stimulus": 8, "trial": 28, "rt": 1770, "response": "Alpha"}, "29": {"stimulus": 17, "trial": 29, "rt": 871, "response": "Alpha"}, "40": {"stimulus": 43, "trial": 40, "rt": 6014, "response": "Alpha"}, "41": {"stimulus": 15, "trial": 41, "rt": 1261, "response": "Alpha"}, "1": {"stimulus": 48, "trial": 1, "rt": 3367, "response": "Beta"}, "0": {"stimulus": 67, "trial": 0, "rt": 5630, "response": "Beta"}, "3": {"stimulus": 16, "trial": 3, "rt": 2306, "response": "Alpha"}, "2": {"stimulus": 77, "trial": 2, "rt": 2379, "response": "Beta"}, "5": {"stimulus": 70, "trial": 5, "rt": 1492, "response": "Beta"}, "4": {"stimulus": 37, "trial": 4, "rt": 1935, "response": "Alpha"}, "7": {"stimulus": 4, "trial": 7, "rt": 1517, "response": "Alpha"}, "6": {"stimulus": 51, "trial": 6, "rt": 1409, "response": "Beta"}, "9": {"stimulus": 68, "trial": 9, "rt": 6277, "response": "Beta"}, "8": {"stimulus": 20, "trial": 8, "rt": 1163, "response": "Alpha"}, "78": {"stimulus": 24, "trial": 78, "rt": 927, "response": "Alpha"}, "51": {"stimulus": 7, "trial": 51, "rt": 1316, "response": "Alpha"}, "39": {"stimulus": 63, "trial": 39, "rt": 923, "response": "Alpha"}, "65": {"stimulus": 76, "trial": 65, "rt": 7588, "response": "Alpha"}, "76": {"stimulus": 35, "trial": 76, "rt": 1738, "response": "Alpha"}, "75": {"stimulus": 3, "trial": 75, "rt": 2451, "response": "Alpha"}, "38": {"stimulus": 45, "trial": 38, "rt": 1521, "response": "Alpha"}, "73": {"stimulus": 14, "trial": 73, "rt": 1360, "response": "Alpha"}, "72": {"stimulus": 52, "trial": 72, "rt": 1120, "response": "Alpha"}, "71": {"stimulus": 31, "trial": 71, "rt": 1337, "response": "Alpha"}, "70": {"stimulus": 28, "trial": 70, "rt": 1704, "response": "Alpha"}, "59": {"stimulus": 2, "trial": 59, "rt": 924, "response": "Alpha"}, "79": {"stimulus": 74, "trial": 79, "rt": 2079, "response": "Alpha"}, "58": {"stimulus": 1, "trial": 58, "rt": 1319, "response": "Alpha"}, "11": {"stimulus": 46, "trial": 11, "rt": 2258, "response": "Beta"}, "10": {"stimulus": 72, "trial": 10, "rt": 1439, "response": "Beta"}, "13": {"stimulus": 79, "trial": 13, "rt": 1956, "response": "Beta"}, "12": {"stimulus": 12, "trial": 12, "rt": 1556, "response": "Alpha"}, "15": {"stimulus": 58, "trial": 15, "rt": 1929, "response": "Beta"}, "14": {"stimulus": 23, "trial": 14, "rt": 1571, "response": "Alpha"}, "17": {"stimulus": 34, "trial": 17, "rt": 3410, "response": "Alpha"}, "16": {"stimulus": 44, "trial": 16, "rt": 2130, "response": "Beta"}, "19": {"stimulus": 9, "trial": 19, "rt": 1427, "response": "Alpha"}, "18": {"stimulus": 41, "trial": 18, "rt": 2548, "response": "Beta"}, "31": {"stimulus": 36, "trial": 31, "rt": 1933, "response": "Beta"}, "30": {"stimulus": 54, "trial": 30, "rt": 3698, "response": "Beta"}, "37": {"stimulus": 32, "trial": 37, "rt": 875, "response": "Alpha"}, "36": {"stimulus": 40, "trial": 36, "rt": 1639, "response": "Alpha"}, "35": {"stimulus": 5, "trial": 35, "rt": 1395, "response": "Alpha"}, "34": {"stimulus": 73, "trial": 34, "rt": 1781, "response": "Beta"}, "33": {"stimulus": 26, "trial": 33, "rt": 973, "response": "Alpha"}, "55": {"stimulus": 29, "trial": 55, "rt": 1855, "response": "Alpha"}, "74": {"stimulus": 64, "trial": 74, "rt": 3474, "response": "Alpha"}, "32": {"stimulus": 0, "trial": 32, "rt": 1736, "response": "Alpha"}, "57": {"stimulus": 65, "trial": 57, "rt": 2576, "response": "Beta"}, "50": {"stimulus": 22, "trial": 50, "rt": 54850, "response": "Alpha"}}, "experiment": {"Paradigm": "TACL", "Stimuli": "Size-Color Squares and Size-Orientation Circles", "Experiment": "Generating-Multiple-Categories"}, "submit": {"timeTotal": 634424, "age": "24", "comments": "\nNone", "sex": "FEALE"}}