{"info": {"finish": 1554517803792, "participant": 71, "exposed": true, "lab": false, "start": 1554516960399, "counterbalance": 1, "stimtype": "Squares", "gentype": 1, "condition": "Corner_S", "browser": {"platform": "iPhone", "userAgent": "Mozilla/5.0 (iPhone; CPU iPhone OS 12_1_4 like Mac OS X) AppleWebKit/605.1.15 (KHTML, like Gecko) Version/12.0 Mobile/15E148 Safari/604.1"}}, "observation": {"11": {"stimulus": 80, "trial": 11, "rt": 2199}, "10": {"stimulus": 8, "trial": 10, "rt": 7435}, "1": {"stimulus": 72, "trial": 1, "rt": 3697}, "0": {"stimulus": 8, "trial": 0, "rt": 3220}, "3": {"stimulus": 0, "trial": 3, "rt": 3498}, "2": {"stimulus": 80, "trial": 2, "rt": 2751}, "5": {"stimulus": 80, "trial": 5, "rt": 2221}, "4": {"stimulus": 72, "trial": 4, "rt": 2078}, "7": {"stimulus": 8, "trial": 7, "rt": 2088}, "6": {"stimulus": 0, "trial": 6, "rt": 2075}, "9": {"stimulus": 0, "trial": 9, "rt": 1858}, "8": {"stimulus": 72, "trial": 8, "rt": 2444}}, "generation": {"1": {"category": "Beta", "trial": 1, "stimulus": 36, "rt": 33557}, "0": {"category": "Beta", "trial": 0, "stimulus": 40, "rt": 17631}, "3": {"category": "Beta", "trial": 3, "stimulus": 9, "rt": 13075}, "2": {"category": "Beta", "trial": 2, "stimulus": 35, "rt": 15497}}, "generalization": {"56": {"stimulus": 21, "trial": 56, "rt": 998, "response": "Beta"}, "77": {"stimulus": 45, "trial": 77, "rt": 1198, "response": "Beta"}, "54": {"stimulus": 78, "trial": 54, "rt": 912, "response": "Alpha"}, "42": {"stimulus": 28, "trial": 42, "rt": 1048, "response": "Beta"}, "48": {"stimulus": 34, "trial": 48, "rt": 1115, "response": "Beta"}, "43": {"stimulus": 18, "trial": 43, "rt": 1615, "response": "Beta"}, "60": {"stimulus": 24, "trial": 60, "rt": 1681, "response": "Beta"}, "61": {"stimulus": 49, "trial": 61, "rt": 1116, "response": "Beta"}, "62": {"stimulus": 3, "trial": 62, "rt": 890, "response": "Alpha"}, "63": {"stimulus": 51, "trial": 63, "rt": 756, "response": "Beta"}, "64": {"stimulus": 50, "trial": 64, "rt": 785, "response": "Beta"}, "49": {"stimulus": 13, "trial": 49, "rt": 1315, "response": "Alpha"}, "66": {"stimulus": 6, "trial": 66, "rt": 1049, "response": "Alpha"}, "67": {"stimulus": 66, "trial": 67, "rt": 1099, "response": "Alpha"}, "68": {"stimulus": 61, "trial": 68, "rt": 932, "response": "Alpha"}, "69": {"stimulus": 33, "trial": 69, "rt": 932, "response": "Beta"}, "80": {"stimulus": 41, "trial": 80, "rt": 831, "response": "Beta"}, "52": {"stimulus": 40, "trial": 52, "rt": 1100, "response": "Beta"}, "53": {"stimulus": 4, "trial": 53, "rt": 998, "response": "Alpha"}, "24": {"stimulus": 76, "trial": 24, "rt": 898, "response": "Alpha"}, "25": {"stimulus": 79, "trial": 25, "rt": 994, "response": "Alpha"}, "26": {"stimulus": 62, "trial": 26, "rt": 1054, "response": "Beta"}, "27": {"stimulus": 0, "trial": 27, "rt": 1217, "response": "Alpha"}, "20": {"stimulus": 55, "trial": 20, "rt": 2532, "response": "Beta"}, "21": {"stimulus": 35, "trial": 21, "rt": 1382, "response": "Beta"}, "22": {"stimulus": 25, "trial": 22, "rt": 2182, "response": "Beta"}, "23": {"stimulus": 36, "trial": 23, "rt": 882, "response": "Alpha"}, "46": {"stimulus": 60, "trial": 46, "rt": 1299, "response": "Beta"}, "47": {"stimulus": 67, "trial": 47, "rt": 816, "response": "Alpha"}, "44": {"stimulus": 23, "trial": 44, "rt": 1032, "response": "Alpha"}, "45": {"stimulus": 57, "trial": 45, "rt": 1715, "response": "Beta"}, "28": {"stimulus": 9, "trial": 28, "rt": 1916, "response": "Alpha"}, "29": {"stimulus": 38, "trial": 29, "rt": 1081, "response": "Beta"}, "40": {"stimulus": 69, "trial": 40, "rt": 764, "response": "Alpha"}, "41": {"stimulus": 73, "trial": 41, "rt": 3017, "response": "Alpha"}, "1": {"stimulus": 72, "trial": 1, "rt": 1549, "response": "Alpha"}, "0": {"stimulus": 7, "trial": 0, "rt": 4643, "response": "Beta"}, "3": {"stimulus": 75, "trial": 3, "rt": 1115, "response": "Alpha"}, "2": {"stimulus": 12, "trial": 2, "rt": 2232, "response": "Beta"}, "5": {"stimulus": 27, "trial": 5, "rt": 2867, "response": "Beta"}, "4": {"stimulus": 11, "trial": 4, "rt": 9386, "response": "Beta"}, "7": {"stimulus": 54, "trial": 7, "rt": 1267, "response": "Alpha"}, "6": {"stimulus": 2, "trial": 6, "rt": 1731, "response": "Alpha"}, "9": {"stimulus": 58, "trial": 9, "rt": 3867, "response": "Beta"}, "8": {"stimulus": 15, "trial": 8, "rt": 1831, "response": "Beta"}, "78": {"stimulus": 16, "trial": 78, "rt": 750, "response": "Alpha"}, "51": {"stimulus": 53, "trial": 51, "rt": 1899, "response": "Beta"}, "39": {"stimulus": 37, "trial": 39, "rt": 1516, "response": "Beta"}, "65": {"stimulus": 46, "trial": 65, "rt": 959, "response": "Beta"}, "76": {"stimulus": 17, "trial": 76, "rt": 1217, "response": "Beta"}, "75": {"stimulus": 70, "trial": 75, "rt": 848, "response": "Alpha"}, "38": {"stimulus": 59, "trial": 38, "rt": 1404, "response": "Beta"}, "73": {"stimulus": 1, "trial": 73, "rt": 889, "response": "Alpha"}, "72": {"stimulus": 64, "trial": 72, "rt": 824, "response": "Alpha"}, "71": {"stimulus": 19, "trial": 71, "rt": 782, "response": "Beta"}, "70": {"stimulus": 22, "trial": 70, "rt": 916, "response": "Beta"}, "59": {"stimulus": 56, "trial": 59, "rt": 1217, "response": "Beta"}, "79": {"stimulus": 80, "trial": 79, "rt": 798, "response": "Alpha"}, "58": {"stimulus": 30, "trial": 58, "rt": 902, "response": "Beta"}, "11": {"stimulus": 48, "trial": 11, "rt": 1115, "response": "Beta"}, "10": {"stimulus": 68, "trial": 10, "rt": 1015, "response": "Alpha"}, "13": {"stimulus": 52, "trial": 13, "rt": 1910, "response": "Beta"}, "12": {"stimulus": 10, "trial": 12, "rt": 1471, "response": "Beta"}, "15": {"stimulus": 31, "trial": 15, "rt": 2082, "response": "Beta"}, "14": {"stimulus": 14, "trial": 14, "rt": 1866, "response": "Beta"}, "17": {"stimulus": 8, "trial": 17, "rt": 1199, "response": "Alpha"}, "16": {"stimulus": 77, "trial": 16, "rt": 932, "response": "Alpha"}, "19": {"stimulus": 0, "trial": 19, "rt": 1816, "response": "Alpha"}, "18": {"stimulus": 74, "trial": 18, "rt": 1514, "response": "Alpha"}, "31": {"stimulus": 44, "trial": 31, "rt": 1016, "response": "Beta"}, "30": {"stimulus": 63, "trial": 30, "rt": 1099, "response": "Alpha"}, "37": {"stimulus": 32, "trial": 37, "rt": 1132, "response": "Beta"}, "36": {"stimulus": 47, "trial": 36, "rt": 1094, "response": "Beta"}, "35": {"stimulus": 20, "trial": 35, "rt": 1349, "response": "Beta"}, "34": {"stimulus": 42, "trial": 34, "rt": 966, "response": "Beta"}, "33": {"stimulus": 43, "trial": 33, "rt": 981, "response": "Beta"}, "55": {"stimulus": 5, "trial": 55, "rt": 852, "response": "Alpha"}, "74": {"stimulus": 29, "trial": 74, "rt": 798, "response": "Beta"}, "32": {"stimulus": 71, "trial": 32, "rt": 982, "response": "Alpha"}, "57": {"stimulus": 65, "trial": 57, "rt": 928, "response": "Alpha"}, "50": {"stimulus": 26, "trial": 50, "rt": 1648, "response": "Alpha"}}, "experiment": {"Paradigm": "TACL", "Stimuli": "Size-Color Squares and Size-Orientation Circles", "Experiment": "Generating-Multiple-Categories"}, "submit": {"timeTotal": 844493, "age": "52", "comments": "I enjoyed the experiment.  Thanks for the opportunity to participate and good luck with your research!", "sex": "Male"}}