{"info": {"finish": 1554517564254, "participant": 74, "exposed": true, "lab": false, "start": 1554517263401, "counterbalance": 7, "stimtype": "Circles", "gentype": 1, "condition": "Corner_C", "browser": {"platform": "MacIntel", "userAgent": "Mozilla/5.0 (Macintosh; Intel Mac OS X 10_13_6) AppleWebKit/537.36 (KHTML, like Gecko) Chrome/73.0.3683.86 Safari/537.36"}}, "observation": {"11": {"stimulus": 0, "trial": 11, "rt": 1659}, "10": {"stimulus": 72, "trial": 10, "rt": 1785}, "1": {"stimulus": 72, "trial": 1, "rt": 2253}, "0": {"stimulus": 80, "trial": 0, "rt": 3507}, "3": {"stimulus": 0, "trial": 3, "rt": 1628}, "2": {"stimulus": 8, "trial": 2, "rt": 1689}, "5": {"stimulus": 72, "trial": 5, "rt": 1649}, "4": {"stimulus": 0, "trial": 4, "rt": 1741}, "7": {"stimulus": 8, "trial": 7, "rt": 1512}, "6": {"stimulus": 80, "trial": 6, "rt": 1620}, "9": {"stimulus": 80, "trial": 9, "rt": 1597}, "8": {"stimulus": 8, "trial": 8, "rt": 1508}}, "generation": {"1": {"category": "Beta", "trial": 1, "stimulus": 1, "rt": 6101}, "0": {"category": "Beta", "trial": 0, "stimulus": 37, "rt": 12444}, "3": {"category": "Beta", "trial": 3, "stimulus": 38, "rt": 5748}, "2": {"category": "Beta", "trial": 2, "stimulus": 55, "rt": 11188}}, "generalization": {"56": {"stimulus": 62, "trial": 56, "rt": 620, "response": "Alpha"}, "77": {"stimulus": 40, "trial": 77, "rt": 659, "response": "Beta"}, "54": {"stimulus": 17, "trial": 54, "rt": 818, "response": "Alpha"}, "42": {"stimulus": 21, "trial": 42, "rt": 1223, "response": "Beta"}, "48": {"stimulus": 61, "trial": 48, "rt": 985, "response": "Beta"}, "43": {"stimulus": 26, "trial": 43, "rt": 1362, "response": "Alpha"}, "60": {"stimulus": 69, "trial": 60, "rt": 706, "response": "Beta"}, "61": {"stimulus": 34, "trial": 61, "rt": 732, "response": "Beta"}, "62": {"stimulus": 71, "trial": 62, "rt": 974, "response": "Alpha"}, "63": {"stimulus": 24, "trial": 63, "rt": 939, "response": "Beta"}, "64": {"stimulus": 51, "trial": 64, "rt": 547, "response": "Beta"}, "49": {"stimulus": 47, "trial": 49, "rt": 1162, "response": "Alpha"}, "66": {"stimulus": 36, "trial": 66, "rt": 831, "response": "Beta"}, "67": {"stimulus": 35, "trial": 67, "rt": 847, "response": "Alpha"}, "68": {"stimulus": 56, "trial": 68, "rt": 1072, "response": "Alpha"}, "69": {"stimulus": 13, "trial": 69, "rt": 942, "response": "Beta"}, "80": {"stimulus": 33, "trial": 80, "rt": 1021, "response": "Beta"}, "52": {"stimulus": 8, "trial": 52, "rt": 947, "response": "Alpha"}, "53": {"stimulus": 48, "trial": 53, "rt": 903, "response": "Beta"}, "24": {"stimulus": 0, "trial": 24, "rt": 717, "response": "Alpha"}, "25": {"stimulus": 23, "trial": 25, "rt": 1218, "response": "Beta"}, "26": {"stimulus": 7, "trial": 26, "rt": 1267, "response": "Beta"}, "27": {"stimulus": 18, "trial": 27, "rt": 837, "response": "Alpha"}, "20": {"stimulus": 53, "trial": 20, "rt": 771, "response": "Alpha"}, "21": {"stimulus": 10, "trial": 21, "rt": 894, "response": "Alpha"}, "22": {"stimulus": 64, "trial": 22, "rt": 778, "response": "Alpha"}, "23": {"stimulus": 46, "trial": 23, "rt": 649, "response": "Alpha"}, "46": {"stimulus": 59, "trial": 46, "rt": 1210, "response": "Beta"}, "47": {"stimulus": 44, "trial": 47, "rt": 873, "response": "Alpha"}, "44": {"stimulus": 75, "trial": 44, "rt": 846, "response": "Beta"}, "45": {"stimulus": 66, "trial": 45, "rt": 898, "response": "Beta"}, "28": {"stimulus": 49, "trial": 28, "rt": 1099, "response": "Beta"}, "29": {"stimulus": 77, "trial": 29, "rt": 1193, "response": "Beta"}, "40": {"stimulus": 15, "trial": 40, "rt": 1946, "response": "Beta"}, "41": {"stimulus": 1, "trial": 41, "rt": 1282, "response": "Alpha"}, "1": {"stimulus": 58, "trial": 1, "rt": 4934, "response": "Beta"}, "0": {"stimulus": 60, "trial": 0, "rt": 4092, "response": "Alpha"}, "3": {"stimulus": 57, "trial": 3, "rt": 1201, "response": "Beta"}, "2": {"stimulus": 19, "trial": 2, "rt": 1475, "response": "Alpha"}, "5": {"stimulus": 11, "trial": 5, "rt": 754, "response": "Beta"}, "4": {"stimulus": 31, "trial": 4, "rt": 1200, "response": "Beta"}, "7": {"stimulus": 5, "trial": 7, "rt": 1106, "response": "Beta"}, "6": {"stimulus": 22, "trial": 6, "rt": 7233, "response": "Beta"}, "9": {"stimulus": 16, "trial": 9, "rt": 806, "response": "Beta"}, "8": {"stimulus": 79, "trial": 8, "rt": 1261, "response": "Beta"}, "78": {"stimulus": 12, "trial": 78, "rt": 684, "response": "Beta"}, "51": {"stimulus": 32, "trial": 51, "rt": 1064, "response": "Beta"}, "39": {"stimulus": 74, "trial": 39, "rt": 987, "response": "Beta"}, "65": {"stimulus": 25, "trial": 65, "rt": 440, "response": "Beta"}, "76": {"stimulus": 14, "trial": 76, "rt": 1045, "response": "Beta"}, "75": {"stimulus": 63, "trial": 75, "rt": 563, "response": "Alpha"}, "38": {"stimulus": 42, "trial": 38, "rt": 1177, "response": "Beta"}, "73": {"stimulus": 3, "trial": 73, "rt": 1709, "response": "Beta"}, "72": {"stimulus": 30, "trial": 72, "rt": 1065, "response": "Beta"}, "71": {"stimulus": 29, "trial": 71, "rt": 982, "response": "Alpha"}, "70": {"stimulus": 0, "trial": 70, "rt": 1630, "response": "Alpha"}, "59": {"stimulus": 76, "trial": 59, "rt": 710, "response": "Beta"}, "79": {"stimulus": 68, "trial": 79, "rt": 1239, "response": "Beta"}, "58": {"stimulus": 78, "trial": 58, "rt": 692, "response": "Beta"}, "11": {"stimulus": 52, "trial": 11, "rt": 582, "response": "Beta"}, "10": {"stimulus": 43, "trial": 10, "rt": 648, "response": "Beta"}, "13": {"stimulus": 67, "trial": 13, "rt": 1955, "response": "Beta"}, "12": {"stimulus": 72, "trial": 12, "rt": 1243, "response": "Alpha"}, "15": {"stimulus": 4, "trial": 15, "rt": 882, "response": "Beta"}, "14": {"stimulus": 9, "trial": 14, "rt": 910, "response": "Alpha"}, "17": {"stimulus": 80, "trial": 17, "rt": 1034, "response": "Alpha"}, "16": {"stimulus": 27, "trial": 16, "rt": 839, "response": "Alpha"}, "19": {"stimulus": 20, "trial": 19, "rt": 1721, "response": "Alpha"}, "18": {"stimulus": 70, "trial": 18, "rt": 1257, "response": "Beta"}, "31": {"stimulus": 50, "trial": 31, "rt": 987, "response": "Beta"}, "30": {"stimulus": 55, "trial": 30, "rt": 939, "response": "Alpha"}, "37": {"stimulus": 38, "trial": 37, "rt": 563, "response": "Alpha"}, "36": {"stimulus": 2, "trial": 36, "rt": 686, "response": "Alpha"}, "35": {"stimulus": 37, "trial": 35, "rt": 666, "response": "Alpha"}, "34": {"stimulus": 73, "trial": 34, "rt": 697, "response": "Alpha"}, "33": {"stimulus": 28, "trial": 33, "rt": 1015, "response": "Alpha"}, "55": {"stimulus": 45, "trial": 55, "rt": 702, "response": "Alpha"}, "74": {"stimulus": 54, "trial": 74, "rt": 943, "response": "Alpha"}, "32": {"stimulus": 6, "trial": 32, "rt": 1090, "response": "Beta"}, "57": {"stimulus": 41, "trial": 57, "rt": 926, "response": "Beta"}, "50": {"stimulus": 65, "trial": 50, "rt": 679, "response": "Alpha"}}, "experiment": {"Paradigm": "TACL", "Stimuli": "Size-Color Squares and Size-Orientation Circles", "Experiment": "Generating-Multiple-Categories"}, "submit": {"timeTotal": 301025, "age": "45", "comments": "", "sex": "male"}}