{"info": {"finish": 1554518361639, "participant": 78, "exposed": true, "lab": false, "start": 1554518081652, "counterbalance": 5, "stimtype": "Circles", "gentype": 1, "condition": "Corner_C", "browser": {"platform": "Win32", "userAgent": "Mozilla/5.0 (Windows NT 10.0; Win64; x64) AppleWebKit/537.36 (KHTML, like Gecko) Chrome/73.0.3683.86 Safari/537.36"}}, "observation": {"11": {"stimulus": 8, "trial": 11, "rt": 1315}, "10": {"stimulus": 0, "trial": 10, "rt": 1188}, "1": {"stimulus": 8, "trial": 1, "rt": 2428}, "0": {"stimulus": 80, "trial": 0, "rt": 4971}, "3": {"stimulus": 0, "trial": 3, "rt": 1544}, "2": {"stimulus": 72, "trial": 2, "rt": 1684}, "5": {"stimulus": 0, "trial": 5, "rt": 1442}, "4": {"stimulus": 8, "trial": 4, "rt": 1473}, "7": {"stimulus": 72, "trial": 7, "rt": 1360}, "6": {"stimulus": 80, "trial": 6, "rt": 1406}, "9": {"stimulus": 80, "trial": 9, "rt": 1161}, "8": {"stimulus": 72, "trial": 8, "rt": 1145}}, "generation": {"1": {"category": "Beta", "trial": 1, "stimulus": 21, "rt": 10712}, "0": {"category": "Beta", "trial": 0, "stimulus": 49, "rt": 10490}, "3": {"category": "Beta", "trial": 3, "stimulus": 4, "rt": 8707}, "2": {"category": "Beta", "trial": 2, "stimulus": 76, "rt": 7959}}, "generalization": {"56": {"stimulus": 23, "trial": 56, "rt": 1213, "response": "Alpha"}, "77": {"stimulus": 65, "trial": 77, "rt": 912, "response": "Beta"}, "54": {"stimulus": 40, "trial": 54, "rt": 1561, "response": "Beta"}, "42": {"stimulus": 55, "trial": 42, "rt": 826, "response": "Beta"}, "48": {"stimulus": 68, "trial": 48, "rt": 1438, "response": "Alpha"}, "43": {"stimulus": 25, "trial": 43, "rt": 1093, "response": "Alpha"}, "60": {"stimulus": 51, "trial": 60, "rt": 1013, "response": "Alpha"}, "61": {"stimulus": 58, "trial": 61, "rt": 863, "response": "Beta"}, "62": {"stimulus": 37, "trial": 62, "rt": 744, "response": "Beta"}, "63": {"stimulus": 22, "trial": 63, "rt": 884, "response": "Beta"}, "64": {"stimulus": 7, "trial": 64, "rt": 979, "response": "Alpha"}, "49": {"stimulus": 43, "trial": 49, "rt": 707, "response": "Alpha"}, "66": {"stimulus": 42, "trial": 66, "rt": 998, "response": "Alpha"}, "67": {"stimulus": 63, "trial": 67, "rt": 970, "response": "Alpha"}, "68": {"stimulus": 34, "trial": 68, "rt": 2044, "response": "Alpha"}, "69": {"stimulus": 27, "trial": 69, "rt": 747, "response": "Alpha"}, "80": {"stimulus": 5, "trial": 80, "rt": 943, "response": "Alpha"}, "52": {"stimulus": 1, "trial": 52, "rt": 1138, "response": "Beta"}, "53": {"stimulus": 60, "trial": 53, "rt": 862, "response": "Alpha"}, "24": {"stimulus": 66, "trial": 24, "rt": 1289, "response": "Beta"}, "25": {"stimulus": 76, "trial": 25, "rt": 752, "response": "Beta"}, "26": {"stimulus": 69, "trial": 26, "rt": 924, "response": "Alpha"}, "27": {"stimulus": 71, "trial": 27, "rt": 734, "response": "Alpha"}, "20": {"stimulus": 11, "trial": 20, "rt": 1269, "response": "Beta"}, "21": {"stimulus": 0, "trial": 21, "rt": 924, "response": "Alpha"}, "22": {"stimulus": 47, "trial": 22, "rt": 1380, "response": "Beta"}, "23": {"stimulus": 18, "trial": 23, "rt": 995, "response": "Alpha"}, "46": {"stimulus": 45, "trial": 46, "rt": 1127, "response": "Alpha"}, "47": {"stimulus": 36, "trial": 47, "rt": 909, "response": "Alpha"}, "44": {"stimulus": 72, "trial": 44, "rt": 740, "response": "Alpha"}, "45": {"stimulus": 20, "trial": 45, "rt": 992, "response": "Beta"}, "28": {"stimulus": 10, "trial": 28, "rt": 1134, "response": "Beta"}, "29": {"stimulus": 77, "trial": 29, "rt": 1302, "response": "Alpha"}, "40": {"stimulus": 75, "trial": 40, "rt": 997, "response": "Beta"}, "41": {"stimulus": 30, "trial": 41, "rt": 685, "response": "Beta"}, "1": {"stimulus": 16, "trial": 1, "rt": 1130, "response": "Alpha"}, "0": {"stimulus": 2, "trial": 0, "rt": 2218, "response": "Beta"}, "3": {"stimulus": 78, "trial": 3, "rt": 1372, "response": "Alpha"}, "2": {"stimulus": 26, "trial": 2, "rt": 1145, "response": "Alpha"}, "5": {"stimulus": 33, "trial": 5, "rt": 893, "response": "Alpha"}, "4": {"stimulus": 48, "trial": 4, "rt": 1068, "response": "Beta"}, "7": {"stimulus": 31, "trial": 7, "rt": 1105, "response": "Beta"}, "6": {"stimulus": 28, "trial": 6, "rt": 1112, "response": "Beta"}, "9": {"stimulus": 61, "trial": 9, "rt": 1469, "response": "Alpha"}, "8": {"stimulus": 24, "trial": 8, "rt": 904, "response": "Alpha"}, "78": {"stimulus": 9, "trial": 78, "rt": 959, "response": "Alpha"}, "51": {"stimulus": 52, "trial": 51, "rt": 970, "response": "Alpha"}, "39": {"stimulus": 70, "trial": 39, "rt": 874, "response": "Alpha"}, "65": {"stimulus": 4, "trial": 65, "rt": 879, "response": "Beta"}, "76": {"stimulus": 15, "trial": 76, "rt": 780, "response": "Alpha"}, "75": {"stimulus": 8, "trial": 75, "rt": 701, "response": "Alpha"}, "38": {"stimulus": 67, "trial": 38, "rt": 811, "response": "Beta"}, "73": {"stimulus": 79, "trial": 73, "rt": 622, "response": "Alpha"}, "72": {"stimulus": 35, "trial": 72, "rt": 679, "response": "Alpha"}, "71": {"stimulus": 50, "trial": 71, "rt": 1041, "response": "Alpha"}, "70": {"stimulus": 3, "trial": 70, "rt": 931, "response": "Beta"}, "59": {"stimulus": 19, "trial": 59, "rt": 1070, "response": "Beta"}, "79": {"stimulus": 17, "trial": 79, "rt": 765, "response": "Alpha"}, "58": {"stimulus": 0, "trial": 58, "rt": 707, "response": "Alpha"}, "11": {"stimulus": 54, "trial": 11, "rt": 997, "response": "Alpha"}, "10": {"stimulus": 32, "trial": 10, "rt": 1992, "response": "Alpha"}, "13": {"stimulus": 13, "trial": 13, "rt": 940, "response": "Beta"}, "12": {"stimulus": 74, "trial": 12, "rt": 916, "response": "Beta"}, "15": {"stimulus": 21, "trial": 15, "rt": 914, "response": "Beta"}, "14": {"stimulus": 59, "trial": 14, "rt": 2207, "response": "Alpha"}, "17": {"stimulus": 53, "trial": 17, "rt": 763, "response": "Alpha"}, "16": {"stimulus": 14, "trial": 16, "rt": 1094, "response": "Alpha"}, "19": {"stimulus": 6, "trial": 19, "rt": 808, "response": "Alpha"}, "18": {"stimulus": 44, "trial": 18, "rt": 699, "response": "Alpha"}, "31": {"stimulus": 29, "trial": 31, "rt": 763, "response": "Beta"}, "30": {"stimulus": 73, "trial": 30, "rt": 1388, "response": "Beta"}, "37": {"stimulus": 49, "trial": 37, "rt": 801, "response": "Beta"}, "36": {"stimulus": 46, "trial": 36, "rt": 934, "response": "Beta"}, "35": {"stimulus": 56, "trial": 35, "rt": 955, "response": "Beta"}, "34": {"stimulus": 57, "trial": 34, "rt": 2312, "response": "Beta"}, "33": {"stimulus": 62, "trial": 33, "rt": 1088, "response": "Alpha"}, "55": {"stimulus": 80, "trial": 55, "rt": 1203, "response": "Alpha"}, "74": {"stimulus": 64, "trial": 74, "rt": 1155, "response": "Beta"}, "32": {"stimulus": 12, "trial": 32, "rt": 713, "response": "Beta"}, "57": {"stimulus": 41, "trial": 57, "rt": 691, "response": "Alpha"}, "50": {"stimulus": 38, "trial": 50, "rt": 1127, "response": "Beta"}}, "experiment": {"Paradigm": "TACL", "Stimuli": "Size-Color Squares and Size-Orientation Circles", "Experiment": "Generating-Multiple-Categories"}, "submit": {"timeTotal": 280343, "age": "31", "comments": "Interesting and fun. Thanks!", "sex": "Female"}}