{"info": {"finish": 1554523250534, "participant": 79, "exposed": true, "lab": false, "start": 1554522669165, "counterbalance": 1, "stimtype": "Circles", "gentype": 1, "condition": "Corner_C", "browser": {"platform": "Win32", "userAgent": "Mozilla/5.0 (Windows NT 6.1; Win64; x64) AppleWebKit/537.36 (KHTML, like Gecko) Chrome/73.0.3683.86 Safari/537.36"}}, "observation": {"11": {"stimulus": 80, "trial": 11, "rt": 1602}, "10": {"stimulus": 0, "trial": 10, "rt": 1953}, "1": {"stimulus": 0, "trial": 1, "rt": 14040}, "0": {"stimulus": 72, "trial": 0, "rt": 26662}, "3": {"stimulus": 8, "trial": 3, "rt": 17426}, "2": {"stimulus": 80, "trial": 2, "rt": 9359}, "5": {"stimulus": 80, "trial": 5, "rt": 2145}, "4": {"stimulus": 8, "trial": 4, "rt": 1913}, "7": {"stimulus": 72, "trial": 7, "rt": 1664}, "6": {"stimulus": 0, "trial": 6, "rt": 2690}, "9": {"stimulus": 8, "trial": 9, "rt": 1834}, "8": {"stimulus": 72, "trial": 8, "rt": 4112}}, "generation": {"1": {"category": "Beta", "trial": 1, "stimulus": 2, "rt": 15486}, "0": {"category": "Beta", "trial": 0, "stimulus": 24, "rt": 39998}, "3": {"category": "Beta", "trial": 3, "stimulus": 76, "rt": 5792}, "2": {"category": "Beta", "trial": 2, "stimulus": 16, "rt": 7917}}, "generalization": {"56": {"stimulus": 55, "trial": 56, "rt": 967, "response": "Alpha"}, "77": {"stimulus": 57, "trial": 77, "rt": 2240, "response": "Alpha"}, "54": {"stimulus": 31, "trial": 54, "rt": 3978, "response": "Beta"}, "42": {"stimulus": 54, "trial": 42, "rt": 432, "response": "Alpha"}, "48": {"stimulus": 74, "trial": 48, "rt": 57151, "response": "Alpha"}, "43": {"stimulus": 13, "trial": 43, "rt": 409, "response": "Alpha"}, "60": {"stimulus": 0, "trial": 60, "rt": 814, "response": "Alpha"}, "61": {"stimulus": 1, "trial": 61, "rt": 1504, "response": "Alpha"}, "62": {"stimulus": 34, "trial": 62, "rt": 906, "response": "Beta"}, "63": {"stimulus": 40, "trial": 63, "rt": 1160, "response": "Beta"}, "64": {"stimulus": 75, "trial": 64, "rt": 1311, "response": "Alpha"}, "49": {"stimulus": 37, "trial": 49, "rt": 1106, "response": "Beta"}, "66": {"stimulus": 16, "trial": 66, "rt": 2431, "response": "Alpha"}, "67": {"stimulus": 9, "trial": 67, "rt": 2058, "response": "Alpha"}, "68": {"stimulus": 15, "trial": 68, "rt": 1544, "response": "Alpha"}, "69": {"stimulus": 46, "trial": 69, "rt": 2976, "response": "Alpha"}, "80": {"stimulus": 3, "trial": 80, "rt": 1079, "response": "Alpha"}, "52": {"stimulus": 45, "trial": 52, "rt": 1056, "response": "Beta"}, "53": {"stimulus": 62, "trial": 53, "rt": 2522, "response": "Alpha"}, "24": {"stimulus": 44, "trial": 24, "rt": 457, "response": "Alpha"}, "25": {"stimulus": 49, "trial": 25, "rt": 400, "response": "Alpha"}, "26": {"stimulus": 69, "trial": 26, "rt": 481, "response": "Alpha"}, "27": {"stimulus": 64, "trial": 27, "rt": 721, "response": "Alpha"}, "20": {"stimulus": 20, "trial": 20, "rt": 944, "response": "Alpha"}, "21": {"stimulus": 14, "trial": 21, "rt": 472, "response": "Alpha"}, "22": {"stimulus": 60, "trial": 22, "rt": 599, "response": "Alpha"}, "23": {"stimulus": 24, "trial": 23, "rt": 418, "response": "Alpha"}, "46": {"stimulus": 80, "trial": 46, "rt": 456, "response": "Alpha"}, "47": {"stimulus": 66, "trial": 47, "rt": 463, "response": "Alpha"}, "44": {"stimulus": 72, "trial": 44, "rt": 425, "response": "Alpha"}, "45": {"stimulus": 51, "trial": 45, "rt": 456, "response": "Alpha"}, "28": {"stimulus": 12, "trial": 28, "rt": 631, "response": "Alpha"}, "29": {"stimulus": 26, "trial": 29, "rt": 456, "response": "Alpha"}, "40": {"stimulus": 29, "trial": 40, "rt": 376, "response": "Alpha"}, "41": {"stimulus": 78, "trial": 41, "rt": 434, "response": "Alpha"}, "1": {"stimulus": 61, "trial": 1, "rt": 7566, "response": "Alpha"}, "0": {"stimulus": 23, "trial": 0, "rt": 51326, "response": "Alpha"}, "3": {"stimulus": 59, "trial": 3, "rt": 766, "response": "Alpha"}, "2": {"stimulus": 4, "trial": 2, "rt": 1232, "response": "Alpha"}, "5": {"stimulus": 67, "trial": 5, "rt": 27331, "response": "Alpha"}, "4": {"stimulus": 27, "trial": 4, "rt": 441, "response": "Alpha"}, "7": {"stimulus": 8, "trial": 7, "rt": 626, "response": "Alpha"}, "6": {"stimulus": 17, "trial": 6, "rt": 4969, "response": "Alpha"}, "9": {"stimulus": 38, "trial": 9, "rt": 8055, "response": "Alpha"}, "8": {"stimulus": 21, "trial": 8, "rt": 448, "response": "Alpha"}, "78": {"stimulus": 71, "trial": 78, "rt": 879, "response": "Alpha"}, "51": {"stimulus": 77, "trial": 51, "rt": 840, "response": "Alpha"}, "39": {"stimulus": 33, "trial": 39, "rt": 393, "response": "Alpha"}, "65": {"stimulus": 41, "trial": 65, "rt": 1047, "response": "Beta"}, "76": {"stimulus": 65, "trial": 76, "rt": 1265, "response": "Alpha"}, "75": {"stimulus": 42, "trial": 75, "rt": 1431, "response": "Beta"}, "38": {"stimulus": 70, "trial": 38, "rt": 408, "response": "Alpha"}, "73": {"stimulus": 0, "trial": 73, "rt": 1056, "response": "Alpha"}, "72": {"stimulus": 19, "trial": 72, "rt": 593, "response": "Alpha"}, "71": {"stimulus": 18, "trial": 71, "rt": 1136, "response": "Beta"}, "70": {"stimulus": 36, "trial": 70, "rt": 1904, "response": "Beta"}, "59": {"stimulus": 28, "trial": 59, "rt": 1242, "response": "Beta"}, "79": {"stimulus": 53, "trial": 79, "rt": 1153, "response": "Beta"}, "58": {"stimulus": 7, "trial": 58, "rt": 529, "response": "Alpha"}, "11": {"stimulus": 76, "trial": 11, "rt": 545, "response": "Alpha"}, "10": {"stimulus": 79, "trial": 10, "rt": 961, "response": "Alpha"}, "13": {"stimulus": 50, "trial": 13, "rt": 1753, "response": "Alpha"}, "12": {"stimulus": 68, "trial": 12, "rt": 790, "response": "Alpha"}, "15": {"stimulus": 5, "trial": 15, "rt": 840, "response": "Alpha"}, "14": {"stimulus": 52, "trial": 14, "rt": 681, "response": "Alpha"}, "17": {"stimulus": 35, "trial": 17, "rt": 712, "response": "Alpha"}, "16": {"stimulus": 10, "trial": 16, "rt": 665, "response": "Alpha"}, "19": {"stimulus": 47, "trial": 19, "rt": 1914, "response": "Alpha"}, "18": {"stimulus": 30, "trial": 18, "rt": 567, "response": "Alpha"}, "31": {"stimulus": 22, "trial": 31, "rt": 404, "response": "Alpha"}, "30": {"stimulus": 2, "trial": 30, "rt": 385, "response": "Alpha"}, "37": {"stimulus": 43, "trial": 37, "rt": 424, "response": "Alpha"}, "36": {"stimulus": 32, "trial": 36, "rt": 448, "response": "Alpha"}, "35": {"stimulus": 6, "trial": 35, "rt": 448, "response": "Alpha"}, "34": {"stimulus": 25, "trial": 34, "rt": 535, "response": "Alpha"}, "33": {"stimulus": 73, "trial": 33, "rt": 474, "response": "Alpha"}, "55": {"stimulus": 48, "trial": 55, "rt": 1190, "response": "Beta"}, "74": {"stimulus": 11, "trial": 74, "rt": 2563, "response": "Beta"}, "32": {"stimulus": 58, "trial": 32, "rt": 425, "response": "Alpha"}, "57": {"stimulus": 63, "trial": 57, "rt": 832, "response": "Alpha"}, "50": {"stimulus": 56, "trial": 50, "rt": 729, "response": "Alpha"}}, "experiment": {"Paradigm": "TACL", "Stimuli": "Size-Color Squares and Size-Orientation Circles", "Experiment": "Generating-Multiple-Categories"}, "submit": {"timeTotal": 582371, "age": "43", "comments": "good", "sex": "female"}}