{"info": {"finish": 1554522894124, "participant": 80, "exposed": true, "lab": false, "start": 1554522674547, "counterbalance": 7, "stimtype": "Circles", "gentype": 1, "condition": "Corner_C", "browser": {"platform": "Win32", "userAgent": "Mozilla/5.0 (Windows NT 10.0; Win64; x64) AppleWebKit/537.36 (KHTML, like Gecko) Chrome/73.0.3683.86 Safari/537.36"}}, "observation": {"11": {"stimulus": 80, "trial": 11, "rt": 1403}, "10": {"stimulus": 8, "trial": 10, "rt": 1383}, "1": {"stimulus": 80, "trial": 1, "rt": 2244}, "0": {"stimulus": 0, "trial": 0, "rt": 2249}, "3": {"stimulus": 8, "trial": 3, "rt": 1830}, "2": {"stimulus": 72, "trial": 2, "rt": 1826}, "5": {"stimulus": 8, "trial": 5, "rt": 1793}, "4": {"stimulus": 0, "trial": 4, "rt": 1706}, "7": {"stimulus": 80, "trial": 7, "rt": 1435}, "6": {"stimulus": 72, "trial": 6, "rt": 1676}, "9": {"stimulus": 0, "trial": 9, "rt": 1554}, "8": {"stimulus": 72, "trial": 8, "rt": 1444}}, "generation": {"1": {"category": "Beta", "trial": 1, "stimulus": 15, "rt": 5144}, "0": {"category": "Beta", "trial": 0, "stimulus": 46, "rt": 9431}, "3": {"category": "Beta", "trial": 3, "stimulus": 10, "rt": 5863}, "2": {"category": "Beta", "trial": 2, "stimulus": 63, "rt": 3772}}, "generalization": {"56": {"stimulus": 46, "trial": 56, "rt": 771, "response": "Alpha"}, "77": {"stimulus": 0, "trial": 77, "rt": 526, "response": "Alpha"}, "54": {"stimulus": 25, "trial": 54, "rt": 931, "response": "Beta"}, "42": {"stimulus": 33, "trial": 42, "rt": 533, "response": "Beta"}, "48": {"stimulus": 47, "trial": 48, "rt": 792, "response": "Beta"}, "43": {"stimulus": 70, "trial": 43, "rt": 625, "response": "Beta"}, "60": {"stimulus": 45, "trial": 60, "rt": 434, "response": "Alpha"}, "61": {"stimulus": 63, "trial": 61, "rt": 501, "response": "Alpha"}, "62": {"stimulus": 68, "trial": 62, "rt": 769, "response": "Beta"}, "63": {"stimulus": 31, "trial": 63, "rt": 621, "response": "Beta"}, "64": {"stimulus": 28, "trial": 64, "rt": 1240, "response": "Alpha"}, "49": {"stimulus": 50, "trial": 49, "rt": 253, "response": "Alpha"}, "66": {"stimulus": 32, "trial": 66, "rt": 606, "response": "Beta"}, "67": {"stimulus": 15, "trial": 67, "rt": 617, "response": "Beta"}, "68": {"stimulus": 30, "trial": 68, "rt": 641, "response": "Beta"}, "69": {"stimulus": 13, "trial": 69, "rt": 689, "response": "Beta"}, "80": {"stimulus": 62, "trial": 80, "rt": 632, "response": "Alpha"}, "52": {"stimulus": 17, "trial": 52, "rt": 738, "response": "Alpha"}, "53": {"stimulus": 14, "trial": 53, "rt": 855, "response": "Beta"}, "24": {"stimulus": 9, "trial": 24, "rt": 481, "response": "Alpha"}, "25": {"stimulus": 8, "trial": 25, "rt": 599, "response": "Alpha"}, "26": {"stimulus": 24, "trial": 26, "rt": 712, "response": "Beta"}, "27": {"stimulus": 52, "trial": 27, "rt": 573, "response": "Alpha"}, "20": {"stimulus": 79, "trial": 20, "rt": 439, "response": "Beta"}, "21": {"stimulus": 77, "trial": 21, "rt": 1064, "response": "Beta"}, "22": {"stimulus": 5, "trial": 22, "rt": 649, "response": "Beta"}, "23": {"stimulus": 60, "trial": 23, "rt": 814, "response": "Alpha"}, "46": {"stimulus": 59, "trial": 46, "rt": 733, "response": "Beta"}, "47": {"stimulus": 22, "trial": 47, "rt": 783, "response": "Beta"}, "44": {"stimulus": 6, "trial": 44, "rt": 534, "response": "Beta"}, "45": {"stimulus": 41, "trial": 45, "rt": 661, "response": "Beta"}, "28": {"stimulus": 55, "trial": 28, "rt": 401, "response": "Beta"}, "29": {"stimulus": 36, "trial": 29, "rt": 549, "response": "Alpha"}, "40": {"stimulus": 43, "trial": 40, "rt": 251, "response": "Alpha"}, "41": {"stimulus": 42, "trial": 41, "rt": 516, "response": "Alpha"}, "1": {"stimulus": 26, "trial": 1, "rt": 596, "response": "Alpha"}, "0": {"stimulus": 29, "trial": 0, "rt": 1163, "response": "Alpha"}, "3": {"stimulus": 20, "trial": 3, "rt": 533, "response": "Alpha"}, "2": {"stimulus": 74, "trial": 2, "rt": 542, "response": "Alpha"}, "5": {"stimulus": 51, "trial": 5, "rt": 645, "response": "Alpha"}, "4": {"stimulus": 38, "trial": 4, "rt": 596, "response": "Alpha"}, "7": {"stimulus": 19, "trial": 7, "rt": 730, "response": "Alpha"}, "6": {"stimulus": 1, "trial": 6, "rt": 789, "response": "Alpha"}, "9": {"stimulus": 64, "trial": 9, "rt": 618, "response": "Alpha"}, "8": {"stimulus": 49, "trial": 8, "rt": 584, "response": "Alpha"}, "78": {"stimulus": 34, "trial": 78, "rt": 857, "response": "Beta"}, "51": {"stimulus": 54, "trial": 51, "rt": 544, "response": "Beta"}, "39": {"stimulus": 57, "trial": 39, "rt": 285, "response": "Alpha"}, "65": {"stimulus": 23, "trial": 65, "rt": 837, "response": "Beta"}, "76": {"stimulus": 10, "trial": 76, "rt": 583, "response": "Alpha"}, "75": {"stimulus": 18, "trial": 75, "rt": 323, "response": "Alpha"}, "38": {"stimulus": 4, "trial": 38, "rt": 682, "response": "Beta"}, "73": {"stimulus": 3, "trial": 73, "rt": 610, "response": "Beta"}, "72": {"stimulus": 75, "trial": 72, "rt": 806, "response": "Beta"}, "71": {"stimulus": 0, "trial": 71, "rt": 1164, "response": "Alpha"}, "70": {"stimulus": 7, "trial": 70, "rt": 729, "response": "Beta"}, "59": {"stimulus": 73, "trial": 59, "rt": 606, "response": "Beta"}, "79": {"stimulus": 66, "trial": 79, "rt": 700, "response": "Beta"}, "58": {"stimulus": 16, "trial": 58, "rt": 1051, "response": "Beta"}, "11": {"stimulus": 78, "trial": 11, "rt": 846, "response": "Alpha"}, "10": {"stimulus": 40, "trial": 10, "rt": 673, "response": "Alpha"}, "13": {"stimulus": 2, "trial": 13, "rt": 697, "response": "Alpha"}, "12": {"stimulus": 44, "trial": 12, "rt": 489, "response": "Beta"}, "15": {"stimulus": 72, "trial": 15, "rt": 614, "response": "Beta"}, "14": {"stimulus": 58, "trial": 14, "rt": 924, "response": "Beta"}, "17": {"stimulus": 11, "trial": 17, "rt": 512, "response": "Alpha"}, "16": {"stimulus": 56, "trial": 16, "rt": 362, "response": "Alpha"}, "19": {"stimulus": 76, "trial": 19, "rt": 419, "response": "Alpha"}, "18": {"stimulus": 48, "trial": 18, "rt": 1020, "response": "Beta"}, "31": {"stimulus": 69, "trial": 31, "rt": 1006, "response": "Beta"}, "30": {"stimulus": 35, "trial": 30, "rt": 444, "response": "Alpha"}, "37": {"stimulus": 61, "trial": 37, "rt": 760, "response": "Alpha"}, "36": {"stimulus": 27, "trial": 36, "rt": 445, "response": "Alpha"}, "35": {"stimulus": 80, "trial": 35, "rt": 728, "response": "Alpha"}, "34": {"stimulus": 12, "trial": 34, "rt": 824, "response": "Beta"}, "33": {"stimulus": 65, "trial": 33, "rt": 614, "response": "Alpha"}, "55": {"stimulus": 67, "trial": 55, "rt": 704, "response": "Beta"}, "74": {"stimulus": 53, "trial": 74, "rt": 814, "response": "Beta"}, "32": {"stimulus": 71, "trial": 32, "rt": 447, "response": "Alpha"}, "57": {"stimulus": 21, "trial": 57, "rt": 620, "response": "Beta"}, "50": {"stimulus": 37, "trial": 50, "rt": 1315, "response": "Alpha"}}, "experiment": {"Paradigm": "TACL", "Stimuli": "Size-Color Squares and Size-Orientation Circles", "Experiment": "Generating-Multiple-Categories"}, "submit": {"timeTotal": 219773, "age": "33", "comments": "no comments", "sex": "male"}}