{"info": {"finish": 1554523138385, "participant": 81, "exposed": true, "lab": false, "start": 1554522791868, "counterbalance": 5, "stimtype": "Squares", "gentype": 1, "condition": "Corner_S", "browser": {"platform": "Win32", "userAgent": "Mozilla/5.0 (Windows NT 10.0; Win64; x64) AppleWebKit/537.36 (KHTML, like Gecko) Chrome/73.0.3683.103 Safari/537.36"}}, "observation": {"11": {"stimulus": 80, "trial": 11, "rt": 1486}, "10": {"stimulus": 0, "trial": 10, "rt": 1663}, "1": {"stimulus": 8, "trial": 1, "rt": 2447}, "0": {"stimulus": 0, "trial": 0, "rt": 3691}, "3": {"stimulus": 72, "trial": 3, "rt": 2271}, "2": {"stimulus": 80, "trial": 2, "rt": 2199}, "5": {"stimulus": 80, "trial": 5, "rt": 2407}, "4": {"stimulus": 8, "trial": 4, "rt": 1639}, "7": {"stimulus": 0, "trial": 7, "rt": 2143}, "6": {"stimulus": 72, "trial": 6, "rt": 2567}, "9": {"stimulus": 8, "trial": 9, "rt": 2047}, "8": {"stimulus": 72, "trial": 8, "rt": 1175}}, "generation": {"1": {"category": "Beta", "trial": 1, "stimulus": 80, "rt": 14990}, "0": {"category": "Beta", "trial": 0, "stimulus": 0, "rt": 42229}, "3": {"category": "Beta", "trial": 3, "stimulus": 8, "rt": 4981}, "2": {"category": "Beta", "trial": 2, "stimulus": 72, "rt": 29543}}, "generalization": {"56": {"stimulus": 47, "trial": 56, "rt": 583, "response": "Beta"}, "77": {"stimulus": 67, "trial": 77, "rt": 774, "response": "Alpha"}, "54": {"stimulus": 70, "trial": 54, "rt": 751, "response": "Beta"}, "42": {"stimulus": 18, "trial": 42, "rt": 694, "response": "Beta"}, "48": {"stimulus": 23, "trial": 48, "rt": 1207, "response": "Alpha"}, "43": {"stimulus": 12, "trial": 43, "rt": 783, "response": "Alpha"}, "60": {"stimulus": 27, "trial": 60, "rt": 1951, "response": "Alpha"}, "61": {"stimulus": 0, "trial": 61, "rt": 783, "response": "Beta"}, "62": {"stimulus": 35, "trial": 62, "rt": 767, "response": "Beta"}, "63": {"stimulus": 53, "trial": 63, "rt": 614, "response": "Beta"}, "64": {"stimulus": 79, "trial": 64, "rt": 502, "response": "Beta"}, "49": {"stimulus": 24, "trial": 49, "rt": 1167, "response": "Beta"}, "66": {"stimulus": 40, "trial": 66, "rt": 863, "response": "Alpha"}, "67": {"stimulus": 71, "trial": 67, "rt": 743, "response": "Beta"}, "68": {"stimulus": 60, "trial": 68, "rt": 871, "response": "Alpha"}, "69": {"stimulus": 49, "trial": 69, "rt": 631, "response": "Alpha"}, "80": {"stimulus": 5, "trial": 80, "rt": 503, "response": "Alpha"}, "52": {"stimulus": 2, "trial": 52, "rt": 1215, "response": "Alpha"}, "53": {"stimulus": 0, "trial": 53, "rt": 1030, "response": "Beta"}, "24": {"stimulus": 25, "trial": 24, "rt": 1446, "response": "Alpha"}, "25": {"stimulus": 58, "trial": 25, "rt": 1135, "response": "Alpha"}, "26": {"stimulus": 57, "trial": 26, "rt": 903, "response": "Alpha"}, "27": {"stimulus": 36, "trial": 27, "rt": 1687, "response": "Beta"}, "20": {"stimulus": 44, "trial": 20, "rt": 1151, "response": "Beta"}, "21": {"stimulus": 64, "trial": 21, "rt": 1383, "response": "Beta"}, "22": {"stimulus": 3, "trial": 22, "rt": 847, "response": "Alpha"}, "23": {"stimulus": 74, "trial": 23, "rt": 974, "response": "Alpha"}, "46": {"stimulus": 15, "trial": 46, "rt": 695, "response": "Beta"}, "47": {"stimulus": 48, "trial": 47, "rt": 1183, "response": "Alpha"}, "44": {"stimulus": 51, "trial": 44, "rt": 4014, "response": "Alpha"}, "45": {"stimulus": 6, "trial": 45, "rt": 998, "response": "Beta"}, "28": {"stimulus": 28, "trial": 28, "rt": 1454, "response": "Alpha"}, "29": {"stimulus": 76, "trial": 29, "rt": 1263, "response": "Alpha"}, "40": {"stimulus": 75, "trial": 40, "rt": 3878, "response": "Alpha"}, "41": {"stimulus": 77, "trial": 41, "rt": 1191, "response": "Alpha"}, "1": {"stimulus": 52, "trial": 1, "rt": 2527, "response": "Alpha"}, "0": {"stimulus": 17, "trial": 0, "rt": 4006, "response": "Alpha"}, "3": {"stimulus": 61, "trial": 3, "rt": 2055, "response": "Beta"}, "2": {"stimulus": 38, "trial": 2, "rt": 1695, "response": "Alpha"}, "5": {"stimulus": 42, "trial": 5, "rt": 1599, "response": "Alpha"}, "4": {"stimulus": 80, "trial": 4, "rt": 1615, "response": "Beta"}, "7": {"stimulus": 9, "trial": 7, "rt": 1823, "response": "Beta"}, "6": {"stimulus": 29, "trial": 6, "rt": 2071, "response": "Alpha"}, "9": {"stimulus": 72, "trial": 9, "rt": 1638, "response": "Beta"}, "8": {"stimulus": 56, "trial": 8, "rt": 1007, "response": "Alpha"}, "78": {"stimulus": 13, "trial": 78, "rt": 551, "response": "Alpha"}, "51": {"stimulus": 26, "trial": 51, "rt": 1223, "response": "Alpha"}, "39": {"stimulus": 7, "trial": 39, "rt": 775, "response": "Beta"}, "65": {"stimulus": 50, "trial": 65, "rt": 903, "response": "Alpha"}, "76": {"stimulus": 19, "trial": 76, "rt": 575, "response": "Alpha"}, "75": {"stimulus": 11, "trial": 75, "rt": 639, "response": "Alpha"}, "38": {"stimulus": 33, "trial": 38, "rt": 1111, "response": "Alpha"}, "73": {"stimulus": 30, "trial": 73, "rt": 575, "response": "Alpha"}, "72": {"stimulus": 45, "trial": 72, "rt": 1127, "response": "Alpha"}, "71": {"stimulus": 10, "trial": 71, "rt": 2951, "response": "Beta"}, "70": {"stimulus": 59, "trial": 70, "rt": 455, "response": "Alpha"}, "59": {"stimulus": 78, "trial": 59, "rt": 4863, "response": "Alpha"}, "79": {"stimulus": 41, "trial": 79, "rt": 599, "response": "Alpha"}, "58": {"stimulus": 32, "trial": 58, "rt": 1359, "response": "Alpha"}, "11": {"stimulus": 21, "trial": 11, "rt": 1711, "response": "Alpha"}, "10": {"stimulus": 69, "trial": 10, "rt": 1335, "response": "Beta"}, "13": {"stimulus": 22, "trial": 13, "rt": 1359, "response": "Alpha"}, "12": {"stimulus": 65, "trial": 12, "rt": 919, "response": "Alpha"}, "15": {"stimulus": 62, "trial": 15, "rt": 1686, "response": "Beta"}, "14": {"stimulus": 66, "trial": 14, "rt": 1207, "response": "Alpha"}, "17": {"stimulus": 4, "trial": 17, "rt": 1928, "response": "Beta"}, "16": {"stimulus": 31, "trial": 16, "rt": 1247, "response": "Alpha"}, "19": {"stimulus": 37, "trial": 19, "rt": 1342, "response": "Alpha"}, "18": {"stimulus": 16, "trial": 18, "rt": 1614, "response": "Alpha"}, "31": {"stimulus": 54, "trial": 31, "rt": 1055, "response": "Beta"}, "30": {"stimulus": 34, "trial": 30, "rt": 799, "response": "Beta"}, "37": {"stimulus": 8, "trial": 37, "rt": 1367, "response": "Beta"}, "36": {"stimulus": 55, "trial": 36, "rt": 1695, "response": "Beta"}, "35": {"stimulus": 68, "trial": 35, "rt": 959, "response": "Alpha"}, "34": {"stimulus": 43, "trial": 34, "rt": 1639, "response": "Beta"}, "33": {"stimulus": 73, "trial": 33, "rt": 1431, "response": "Alpha"}, "55": {"stimulus": 1, "trial": 55, "rt": 1159, "response": "Alpha"}, "74": {"stimulus": 20, "trial": 74, "rt": 575, "response": "Alpha"}, "32": {"stimulus": 14, "trial": 32, "rt": 1007, "response": "Alpha"}, "57": {"stimulus": 63, "trial": 57, "rt": 599, "response": "Alpha"}, "50": {"stimulus": 46, "trial": 50, "rt": 1055, "response": "Beta"}}, "experiment": {"Paradigm": "TACL", "Stimuli": "Size-Color Squares and Size-Orientation Circles", "Experiment": "Generating-Multiple-Categories"}, "submit": {"timeTotal": 348171, "age": "28", "comments": "good", "sex": "male"}}