{"info": {"finish": 1554523506653, "participant": 82, "exposed": true, "lab": false, "start": 1554523166613, "counterbalance": 6, "stimtype": "Circles", "gentype": 1, "condition": "Corner_C", "browser": {"platform": "MacIntel", "userAgent": "Mozilla/5.0 (Macintosh; Intel Mac OS X 10_11_6) AppleWebKit/537.36 (KHTML, like Gecko) Chrome/73.0.3683.86 Safari/537.36"}}, "observation": {"11": {"stimulus": 72, "trial": 11, "rt": 1429}, "10": {"stimulus": 0, "trial": 10, "rt": 1532}, "1": {"stimulus": 8, "trial": 1, "rt": 1691}, "0": {"stimulus": 0, "trial": 0, "rt": 2374}, "3": {"stimulus": 80, "trial": 3, "rt": 2025}, "2": {"stimulus": 72, "trial": 2, "rt": 1954}, "5": {"stimulus": 80, "trial": 5, "rt": 2132}, "4": {"stimulus": 0, "trial": 4, "rt": 3502}, "7": {"stimulus": 72, "trial": 7, "rt": 1800}, "6": {"stimulus": 8, "trial": 6, "rt": 2175}, "9": {"stimulus": 8, "trial": 9, "rt": 1487}, "8": {"stimulus": 80, "trial": 8, "rt": 1994}}, "generation": {"1": {"category": "Beta", "trial": 1, "stimulus": 61, "rt": 6954}, "0": {"category": "Beta", "trial": 0, "stimulus": 40, "rt": 11208}, "3": {"category": "Beta", "trial": 3, "stimulus": 50, "rt": 38670}, "2": {"category": "Beta", "trial": 2, "stimulus": 4, "rt": 7319}}, "generalization": {"56": {"stimulus": 42, "trial": 56, "rt": 1108, "response": "Beta"}, "77": {"stimulus": 78, "trial": 77, "rt": 1932, "response": "Beta"}, "54": {"stimulus": 16, "trial": 54, "rt": 908, "response": "Beta"}, "42": {"stimulus": 62, "trial": 42, "rt": 1010, "response": "Alpha"}, "48": {"stimulus": 45, "trial": 48, "rt": 14625, "response": "Alpha"}, "43": {"stimulus": 53, "trial": 43, "rt": 654, "response": "Alpha"}, "60": {"stimulus": 8, "trial": 60, "rt": 1635, "response": "Alpha"}, "61": {"stimulus": 75, "trial": 61, "rt": 987, "response": "Alpha"}, "62": {"stimulus": 0, "trial": 62, "rt": 1358, "response": "Alpha"}, "63": {"stimulus": 43, "trial": 63, "rt": 1410, "response": "Beta"}, "64": {"stimulus": 58, "trial": 64, "rt": 913, "response": "Beta"}, "49": {"stimulus": 57, "trial": 49, "rt": 5124, "response": "Alpha"}, "66": {"stimulus": 30, "trial": 66, "rt": 1099, "response": "Alpha"}, "67": {"stimulus": 22, "trial": 67, "rt": 4739, "response": "Beta"}, "68": {"stimulus": 31, "trial": 68, "rt": 803, "response": "Beta"}, "69": {"stimulus": 3, "trial": 69, "rt": 944, "response": "Alpha"}, "80": {"stimulus": 19, "trial": 80, "rt": 1207, "response": "Alpha"}, "52": {"stimulus": 28, "trial": 52, "rt": 1099, "response": "Alpha"}, "53": {"stimulus": 2, "trial": 53, "rt": 1186, "response": "Alpha"}, "24": {"stimulus": 29, "trial": 24, "rt": 1184, "response": "Alpha"}, "25": {"stimulus": 1, "trial": 25, "rt": 890, "response": "Alpha"}, "26": {"stimulus": 35, "trial": 26, "rt": 970, "response": "Alpha"}, "27": {"stimulus": 44, "trial": 27, "rt": 715, "response": "Alpha"}, "20": {"stimulus": 64, "trial": 20, "rt": 1093, "response": "Alpha"}, "21": {"stimulus": 80, "trial": 21, "rt": 1027, "response": "Alpha"}, "22": {"stimulus": 79, "trial": 22, "rt": 1334, "response": "Beta"}, "23": {"stimulus": 77, "trial": 23, "rt": 1223, "response": "Beta"}, "46": {"stimulus": 49, "trial": 46, "rt": 930, "response": "Beta"}, "47": {"stimulus": 50, "trial": 47, "rt": 2092, "response": "Beta"}, "44": {"stimulus": 51, "trial": 44, "rt": 1359, "response": "Beta"}, "45": {"stimulus": 71, "trial": 45, "rt": 1170, "response": "Alpha"}, "28": {"stimulus": 65, "trial": 28, "rt": 754, "response": "Alpha"}, "29": {"stimulus": 21, "trial": 29, "rt": 1212, "response": "Alpha"}, "40": {"stimulus": 33, "trial": 40, "rt": 926, "response": "Beta"}, "41": {"stimulus": 40, "trial": 41, "rt": 1134, "response": "Beta"}, "1": {"stimulus": 17, "trial": 1, "rt": 983, "response": "Alpha"}, "0": {"stimulus": 0, "trial": 0, "rt": 1088, "response": "Alpha"}, "3": {"stimulus": 41, "trial": 3, "rt": 1216, "response": "Beta"}, "2": {"stimulus": 55, "trial": 2, "rt": 755, "response": "Alpha"}, "5": {"stimulus": 9, "trial": 5, "rt": 1117, "response": "Alpha"}, "4": {"stimulus": 20, "trial": 4, "rt": 672, "response": "Alpha"}, "7": {"stimulus": 25, "trial": 7, "rt": 90, "response": "Beta"}, "6": {"stimulus": 23, "trial": 6, "rt": 1272, "response": "Beta"}, "9": {"stimulus": 69, "trial": 9, "rt": 814, "response": "Beta"}, "8": {"stimulus": 47, "trial": 8, "rt": 1142, "response": "Alpha"}, "78": {"stimulus": 4, "trial": 78, "rt": 3099, "response": "Beta"}, "51": {"stimulus": 5, "trial": 51, "rt": 1054, "response": "Beta"}, "39": {"stimulus": 60, "trial": 39, "rt": 805, "response": "Beta"}, "65": {"stimulus": 38, "trial": 65, "rt": 1285, "response": "Alpha"}, "76": {"stimulus": 54, "trial": 76, "rt": 1475, "response": "Alpha"}, "75": {"stimulus": 11, "trial": 75, "rt": 834, "response": "Alpha"}, "38": {"stimulus": 13, "trial": 38, "rt": 1158, "response": "Beta"}, "73": {"stimulus": 26, "trial": 73, "rt": 1349, "response": "Alpha"}, "72": {"stimulus": 48, "trial": 72, "rt": 1515, "response": "Alpha"}, "71": {"stimulus": 34, "trial": 71, "rt": 5566, "response": "Beta"}, "70": {"stimulus": 67, "trial": 70, "rt": 948, "response": "Beta"}, "59": {"stimulus": 15, "trial": 59, "rt": 739, "response": "Beta"}, "79": {"stimulus": 37, "trial": 79, "rt": 1612, "response": "Alpha"}, "58": {"stimulus": 70, "trial": 58, "rt": 1771, "response": "Beta"}, "11": {"stimulus": 12, "trial": 11, "rt": 1214, "response": "Alpha"}, "10": {"stimulus": 32, "trial": 10, "rt": 797, "response": "Beta"}, "13": {"stimulus": 14, "trial": 13, "rt": 1289, "response": "Beta"}, "12": {"stimulus": 24, "trial": 12, "rt": 789, "response": "Beta"}, "15": {"stimulus": 7, "trial": 15, "rt": 1163, "response": "Beta"}, "14": {"stimulus": 63, "trial": 14, "rt": 1027, "response": "Alpha"}, "17": {"stimulus": 27, "trial": 17, "rt": 917, "response": "Alpha"}, "16": {"stimulus": 61, "trial": 16, "rt": 1186, "response": "Beta"}, "19": {"stimulus": 6, "trial": 19, "rt": 873, "response": "Beta"}, "18": {"stimulus": 36, "trial": 18, "rt": 1023, "response": "Alpha"}, "31": {"stimulus": 59, "trial": 31, "rt": 1388, "response": "Beta"}, "30": {"stimulus": 46, "trial": 30, "rt": 830, "response": "Alpha"}, "37": {"stimulus": 74, "trial": 37, "rt": 712, "response": "Alpha"}, "36": {"stimulus": 68, "trial": 36, "rt": 855, "response": "Beta"}, "35": {"stimulus": 76, "trial": 35, "rt": 1448, "response": "Beta"}, "34": {"stimulus": 18, "trial": 34, "rt": 1356, "response": "Alpha"}, "33": {"stimulus": 66, "trial": 33, "rt": 1034, "response": "Alpha"}, "55": {"stimulus": 52, "trial": 55, "rt": 1330, "response": "Beta"}, "74": {"stimulus": 73, "trial": 74, "rt": 859, "response": "Alpha"}, "32": {"stimulus": 10, "trial": 32, "rt": 892, "response": "Alpha"}, "57": {"stimulus": 72, "trial": 57, "rt": 1005, "response": "Alpha"}, "50": {"stimulus": 56, "trial": 50, "rt": 11485, "response": "Alpha"}}, "experiment": {"Paradigm": "TACL", "Stimuli": "Size-Color Squares and Size-Orientation Circles", "Experiment": "Generating-Multiple-Categories"}, "submit": {"timeTotal": 340287, "age": "25", "comments": "It was a fun little game, but it would have been nice to find out in the end how accurate we were with labelling the shapes.", "sex": "Female"}}