{"info": {"finish": 1554523511130, "participant": 83, "exposed": true, "lab": false, "start": 1554523202203, "counterbalance": 2, "stimtype": "Circles", "gentype": 1, "condition": "Corner_C", "browser": {"platform": "Linux x86_64", "userAgent": "Mozilla/5.0 (X11; CrOS x86_64 11647.104.0) AppleWebKit/537.36 (KHTML, like Gecko) Chrome/73.0.3683.88 Safari/537.36"}}, "observation": {"11": {"stimulus": 8, "trial": 11, "rt": 1276}, "10": {"stimulus": 72, "trial": 10, "rt": 1721}, "1": {"stimulus": 0, "trial": 1, "rt": 2581}, "0": {"stimulus": 72, "trial": 0, "rt": 4223}, "3": {"stimulus": 80, "trial": 3, "rt": 1839}, "2": {"stimulus": 8, "trial": 2, "rt": 2285}, "5": {"stimulus": 0, "trial": 5, "rt": 1669}, "4": {"stimulus": 8, "trial": 4, "rt": 2385}, "7": {"stimulus": 80, "trial": 7, "rt": 1683}, "6": {"stimulus": 72, "trial": 6, "rt": 1600}, "9": {"stimulus": 0, "trial": 9, "rt": 1532}, "8": {"stimulus": 80, "trial": 8, "rt": 1667}}, "generation": {"1": {"category": "Beta", "trial": 1, "stimulus": 49, "rt": 16156}, "0": {"category": "Beta", "trial": 0, "stimulus": 37, "rt": 18317}, "3": {"category": "Beta", "trial": 3, "stimulus": 50, "rt": 12354}, "2": {"category": "Beta", "trial": 2, "stimulus": 41, "rt": 9435}}, "generalization": {"56": {"stimulus": 79, "trial": 56, "rt": 1000, "response": "Alpha"}, "77": {"stimulus": 55, "trial": 77, "rt": 860, "response": "Beta"}, "54": {"stimulus": 61, "trial": 54, "rt": 850, "response": "Beta"}, "42": {"stimulus": 78, "trial": 42, "rt": 973, "response": "Alpha"}, "48": {"stimulus": 54, "trial": 48, "rt": 517, "response": "Beta"}, "43": {"stimulus": 77, "trial": 43, "rt": 769, "response": "Alpha"}, "60": {"stimulus": 52, "trial": 60, "rt": 1026, "response": "Beta"}, "61": {"stimulus": 72, "trial": 61, "rt": 1026, "response": "Alpha"}, "62": {"stimulus": 44, "trial": 62, "rt": 1124, "response": "Beta"}, "63": {"stimulus": 6, "trial": 63, "rt": 809, "response": "Alpha"}, "64": {"stimulus": 9, "trial": 64, "rt": 871, "response": "Alpha"}, "49": {"stimulus": 68, "trial": 49, "rt": 560, "response": "Beta"}, "66": {"stimulus": 62, "trial": 66, "rt": 1233, "response": "Beta"}, "67": {"stimulus": 10, "trial": 67, "rt": 1211, "response": "Alpha"}, "68": {"stimulus": 36, "trial": 68, "rt": 1164, "response": "Beta"}, "69": {"stimulus": 71, "trial": 69, "rt": 1382, "response": "Beta"}, "80": {"stimulus": 21, "trial": 80, "rt": 2952, "response": "Alpha"}, "52": {"stimulus": 64, "trial": 52, "rt": 704, "response": "Beta"}, "53": {"stimulus": 19, "trial": 53, "rt": 1696, "response": "Alpha"}, "24": {"stimulus": 0, "trial": 24, "rt": 1137, "response": "Alpha"}, "25": {"stimulus": 56, "trial": 25, "rt": 1117, "response": "Beta"}, "26": {"stimulus": 7, "trial": 26, "rt": 968, "response": "Alpha"}, "27": {"stimulus": 49, "trial": 27, "rt": 896, "response": "Beta"}, "20": {"stimulus": 23, "trial": 20, "rt": 750, "response": "Alpha"}, "21": {"stimulus": 80, "trial": 21, "rt": 520, "response": "Alpha"}, "22": {"stimulus": 51, "trial": 22, "rt": 1084, "response": "Beta"}, "23": {"stimulus": 30, "trial": 23, "rt": 815, "response": "Beta"}, "46": {"stimulus": 47, "trial": 46, "rt": 789, "response": "Beta"}, "47": {"stimulus": 50, "trial": 47, "rt": 695, "response": "Beta"}, "44": {"stimulus": 31, "trial": 44, "rt": 1621, "response": "Beta"}, "45": {"stimulus": 3, "trial": 45, "rt": 724, "response": "Alpha"}, "28": {"stimulus": 20, "trial": 28, "rt": 799, "response": "Alpha"}, "29": {"stimulus": 46, "trial": 29, "rt": 904, "response": "Beta"}, "40": {"stimulus": 57, "trial": 40, "rt": 1174, "response": "Beta"}, "41": {"stimulus": 12, "trial": 41, "rt": 1609, "response": "Alpha"}, "1": {"stimulus": 8, "trial": 1, "rt": 1070, "response": "Alpha"}, "0": {"stimulus": 26, "trial": 0, "rt": 3761, "response": "Alpha"}, "3": {"stimulus": 67, "trial": 3, "rt": 977, "response": "Beta"}, "2": {"stimulus": 60, "trial": 2, "rt": 1561, "response": "Beta"}, "5": {"stimulus": 69, "trial": 5, "rt": 717, "response": "Beta"}, "4": {"stimulus": 25, "trial": 4, "rt": 1474, "response": "Alpha"}, "7": {"stimulus": 2, "trial": 7, "rt": 461, "response": "Beta"}, "6": {"stimulus": 4, "trial": 6, "rt": 653, "response": "Alpha"}, "9": {"stimulus": 34, "trial": 9, "rt": 860, "response": "Beta"}, "8": {"stimulus": 29, "trial": 8, "rt": 782, "response": "Beta"}, "78": {"stimulus": 76, "trial": 78, "rt": 1827, "response": "Alpha"}, "51": {"stimulus": 48, "trial": 51, "rt": 1435, "response": "Beta"}, "39": {"stimulus": 35, "trial": 39, "rt": 1367, "response": "Beta"}, "65": {"stimulus": 16, "trial": 65, "rt": 810, "response": "Alpha"}, "76": {"stimulus": 66, "trial": 76, "rt": 823, "response": "Beta"}, "75": {"stimulus": 58, "trial": 75, "rt": 1152, "response": "Beta"}, "38": {"stimulus": 15, "trial": 38, "rt": 616, "response": "Alpha"}, "73": {"stimulus": 5, "trial": 73, "rt": 2138, "response": "Alpha"}, "72": {"stimulus": 37, "trial": 72, "rt": 560, "response": "Beta"}, "71": {"stimulus": 70, "trial": 71, "rt": 655, "response": "Beta"}, "70": {"stimulus": 43, "trial": 70, "rt": 746, "response": "Beta"}, "59": {"stimulus": 18, "trial": 59, "rt": 887, "response": "Alpha"}, "79": {"stimulus": 59, "trial": 79, "rt": 1083, "response": "Beta"}, "58": {"stimulus": 17, "trial": 58, "rt": 1086, "response": "Alpha"}, "11": {"stimulus": 75, "trial": 11, "rt": 544, "response": "Alpha"}, "10": {"stimulus": 22, "trial": 10, "rt": 1113, "response": "Alpha"}, "13": {"stimulus": 14, "trial": 13, "rt": 665, "response": "Alpha"}, "12": {"stimulus": 74, "trial": 12, "rt": 565, "response": "Alpha"}, "15": {"stimulus": 65, "trial": 15, "rt": 888, "response": "Beta"}, "14": {"stimulus": 45, "trial": 14, "rt": 1837, "response": "Beta"}, "17": {"stimulus": 28, "trial": 17, "rt": 816, "response": "Beta"}, "16": {"stimulus": 33, "trial": 16, "rt": 855, "response": "Beta"}, "19": {"stimulus": 73, "trial": 19, "rt": 918, "response": "Alpha"}, "18": {"stimulus": 13, "trial": 18, "rt": 1294, "response": "Alpha"}, "31": {"stimulus": 53, "trial": 31, "rt": 762, "response": "Beta"}, "30": {"stimulus": 0, "trial": 30, "rt": 730, "response": "Alpha"}, "37": {"stimulus": 11, "trial": 37, "rt": 1314, "response": "Alpha"}, "36": {"stimulus": 27, "trial": 36, "rt": 817, "response": "Beta"}, "35": {"stimulus": 38, "trial": 35, "rt": 688, "response": "Beta"}, "34": {"stimulus": 40, "trial": 34, "rt": 1261, "response": "Beta"}, "33": {"stimulus": 63, "trial": 33, "rt": 1051, "response": "Beta"}, "55": {"stimulus": 41, "trial": 55, "rt": 909, "response": "Beta"}, "74": {"stimulus": 24, "trial": 74, "rt": 866, "response": "Alpha"}, "32": {"stimulus": 32, "trial": 32, "rt": 909, "response": "Alpha"}, "57": {"stimulus": 42, "trial": 57, "rt": 915, "response": "Beta"}, "50": {"stimulus": 1, "trial": 50, "rt": 928, "response": "Alpha"}}, "experiment": {"Paradigm": "TACL", "Stimuli": "Size-Color Squares and Size-Orientation Circles", "Experiment": "Generating-Multiple-Categories"}, "submit": {"timeTotal": 309596, "age": "29", "comments": "everything ran smoothly ", "sex": "male"}}