{"info": {"finish": 1554526923395, "participant": 85, "exposed": true, "lab": false, "start": 1554526356015, "counterbalance": 0, "stimtype": "Squares", "gentype": 1, "condition": "Corner_S", "browser": {"platform": "Win32", "userAgent": "Mozilla/5.0 (Windows NT 10.0; Win64; x64) AppleWebKit/537.36 (KHTML, like Gecko) Chrome/73.0.3683.86 Safari/537.36"}}, "observation": {"11": {"stimulus": 80, "trial": 11, "rt": 1809}, "10": {"stimulus": 8, "trial": 10, "rt": 2371}, "1": {"stimulus": 8, "trial": 1, "rt": 2697}, "0": {"stimulus": 0, "trial": 0, "rt": 3039}, "3": {"stimulus": 80, "trial": 3, "rt": 2066}, "2": {"stimulus": 72, "trial": 2, "rt": 2961}, "5": {"stimulus": 0, "trial": 5, "rt": 2175}, "4": {"stimulus": 72, "trial": 4, "rt": 2439}, "7": {"stimulus": 80, "trial": 7, "rt": 3900}, "6": {"stimulus": 8, "trial": 6, "rt": 2805}, "9": {"stimulus": 0, "trial": 9, "rt": 2078}, "8": {"stimulus": 72, "trial": 8, "rt": 2011}}, "generation": {"1": {"category": "Beta", "trial": 1, "stimulus": 48, "rt": 10525}, "0": {"category": "Beta", "trial": 0, "stimulus": 53, "rt": 21237}, "3": {"category": "Beta", "trial": 3, "stimulus": 44, "rt": 15214}, "2": {"category": "Beta", "trial": 2, "stimulus": 45, "rt": 6729}}, "generalization": {"56": {"stimulus": 35, "trial": 56, "rt": 9530, "response": "Alpha"}, "77": {"stimulus": 18, "trial": 77, "rt": 961, "response": "Alpha"}, "54": {"stimulus": 63, "trial": 54, "rt": 1547, "response": "Alpha"}, "42": {"stimulus": 72, "trial": 42, "rt": 2158, "response": "Alpha"}, "48": {"stimulus": 42, "trial": 48, "rt": 2192, "response": "Beta"}, "43": {"stimulus": 28, "trial": 43, "rt": 3755, "response": "Beta"}, "60": {"stimulus": 24, "trial": 60, "rt": 2016, "response": "Beta"}, "61": {"stimulus": 77, "trial": 61, "rt": 1507, "response": "Alpha"}, "62": {"stimulus": 32, "trial": 62, "rt": 2534, "response": "Beta"}, "63": {"stimulus": 44, "trial": 63, "rt": 1887, "response": "Beta"}, "64": {"stimulus": 0, "trial": 64, "rt": 1537, "response": "Alpha"}, "49": {"stimulus": 8, "trial": 49, "rt": 1353, "response": "Alpha"}, "66": {"stimulus": 4, "trial": 66, "rt": 1115, "response": "Alpha"}, "67": {"stimulus": 70, "trial": 67, "rt": 2513, "response": "Beta"}, "68": {"stimulus": 13, "trial": 68, "rt": 4580, "response": "Alpha"}, "69": {"stimulus": 52, "trial": 69, "rt": 5043, "response": "Beta"}, "80": {"stimulus": 40, "trial": 80, "rt": 4154, "response": "Beta"}, "52": {"stimulus": 26, "trial": 52, "rt": 2928, "response": "Alpha"}, "53": {"stimulus": 14, "trial": 53, "rt": 3947, "response": "Beta"}, "24": {"stimulus": 46, "trial": 24, "rt": 1679, "response": "Alpha"}, "25": {"stimulus": 41, "trial": 25, "rt": 1747, "response": "Beta"}, "26": {"stimulus": 60, "trial": 26, "rt": 1835, "response": "Beta"}, "27": {"stimulus": 0, "trial": 27, "rt": 1415, "response": "Alpha"}, "20": {"stimulus": 62, "trial": 20, "rt": 6666, "response": "Beta"}, "21": {"stimulus": 61, "trial": 21, "rt": 1834, "response": "Beta"}, "22": {"stimulus": 29, "trial": 22, "rt": 1548, "response": "Beta"}, "23": {"stimulus": 80, "trial": 23, "rt": 1398, "response": "Alpha"}, "46": {"stimulus": 10, "trial": 46, "rt": 1698, "response": "Beta"}, "47": {"stimulus": 76, "trial": 47, "rt": 1470, "response": "Alpha"}, "44": {"stimulus": 79, "trial": 44, "rt": 1861, "response": "Alpha"}, "45": {"stimulus": 19, "trial": 45, "rt": 3602, "response": "Beta"}, "28": {"stimulus": 50, "trial": 28, "rt": 2315, "response": "Beta"}, "29": {"stimulus": 55, "trial": 29, "rt": 2865, "response": "Alpha"}, "40": {"stimulus": 6, "trial": 40, "rt": 1592, "response": "Alpha"}, "41": {"stimulus": 20, "trial": 41, "rt": 4192, "response": "Alpha"}, "1": {"stimulus": 2, "trial": 1, "rt": 1624, "response": "Alpha"}, "0": {"stimulus": 47, "trial": 0, "rt": 6969, "response": "Beta"}, "3": {"stimulus": 33, "trial": 3, "rt": 2603, "response": "Beta"}, "2": {"stimulus": 7, "trial": 2, "rt": 1041, "response": "Alpha"}, "5": {"stimulus": 56, "trial": 5, "rt": 830, "response": "Alpha"}, "4": {"stimulus": 54, "trial": 4, "rt": 1310, "response": "Alpha"}, "7": {"stimulus": 64, "trial": 7, "rt": 1244, "response": "Alpha"}, "6": {"stimulus": 21, "trial": 6, "rt": 5469, "response": "Alpha"}, "9": {"stimulus": 17, "trial": 9, "rt": 1260, "response": "Alpha"}, "8": {"stimulus": 69, "trial": 8, "rt": 1126, "response": "Alpha"}, "78": {"stimulus": 31, "trial": 78, "rt": 1845, "response": "Alpha"}, "51": {"stimulus": 34, "trial": 51, "rt": 9991, "response": "Beta"}, "39": {"stimulus": 30, "trial": 39, "rt": 1871, "response": "Beta"}, "65": {"stimulus": 3, "trial": 65, "rt": 1109, "response": "Alpha"}, "76": {"stimulus": 16, "trial": 76, "rt": 1243, "response": "Alpha"}, "75": {"stimulus": 1, "trial": 75, "rt": 1258, "response": "Alpha"}, "38": {"stimulus": 38, "trial": 38, "rt": 2613, "response": "Alpha"}, "73": {"stimulus": 27, "trial": 73, "rt": 2307, "response": "Beta"}, "72": {"stimulus": 67, "trial": 72, "rt": 10178, "response": "Beta"}, "71": {"stimulus": 68, "trial": 71, "rt": 3054, "response": "Beta"}, "70": {"stimulus": 23, "trial": 70, "rt": 1382, "response": "Alpha"}, "59": {"stimulus": 75, "trial": 59, "rt": 2066, "response": "Beta"}, "79": {"stimulus": 49, "trial": 79, "rt": 1375, "response": "Beta"}, "58": {"stimulus": 45, "trial": 58, "rt": 1985, "response": "Alpha"}, "11": {"stimulus": 66, "trial": 11, "rt": 2270, "response": "Alpha"}, "10": {"stimulus": 36, "trial": 10, "rt": 1721, "response": "Beta"}, "13": {"stimulus": 78, "trial": 13, "rt": 1260, "response": "Beta"}, "12": {"stimulus": 12, "trial": 12, "rt": 1449, "response": "Alpha"}, "15": {"stimulus": 15, "trial": 15, "rt": 1313, "response": "Alpha"}, "14": {"stimulus": 37, "trial": 14, "rt": 2038, "response": "Beta"}, "17": {"stimulus": 25, "trial": 17, "rt": 2077, "response": "Beta"}, "16": {"stimulus": 9, "trial": 16, "rt": 1365, "response": "Alpha"}, "19": {"stimulus": 5, "trial": 19, "rt": 1463, "response": "Beta"}, "18": {"stimulus": 59, "trial": 18, "rt": 9216, "response": "Alpha"}, "31": {"stimulus": 53, "trial": 31, "rt": 1968, "response": "Beta"}, "30": {"stimulus": 48, "trial": 30, "rt": 1343, "response": "Beta"}, "37": {"stimulus": 22, "trial": 37, "rt": 822, "response": "Alpha"}, "36": {"stimulus": 57, "trial": 36, "rt": 5824, "response": "Alpha"}, "35": {"stimulus": 58, "trial": 35, "rt": 2825, "response": "Beta"}, "34": {"stimulus": 11, "trial": 34, "rt": 2491, "response": "Alpha"}, "33": {"stimulus": 65, "trial": 33, "rt": 1815, "response": "Alpha"}, "55": {"stimulus": 51, "trial": 55, "rt": 1968, "response": "Beta"}, "74": {"stimulus": 43, "trial": 74, "rt": 1166, "response": "Beta"}, "32": {"stimulus": 73, "trial": 32, "rt": 2145, "response": "Alpha"}, "57": {"stimulus": 71, "trial": 57, "rt": 4551, "response": "Alpha"}, "50": {"stimulus": 74, "trial": 50, "rt": 1586, "response": "Alpha"}}, "experiment": {"Paradigm": "TACL", "Stimuli": "Size-Color Squares and Size-Orientation Circles", "Experiment": "Generating-Multiple-Categories"}, "submit": {"timeTotal": 567635, "age": "24", "comments": "This survey was really fun, thanks!", "sex": "Male"}}