{"info": {"finish": 1554527586305, "participant": 86, "exposed": true, "lab": false, "start": 1554526455661, "counterbalance": 3, "stimtype": "Squares", "gentype": 1, "condition": "Corner_S", "browser": {"platform": "Win32", "userAgent": "Mozilla/5.0 (Windows NT 6.1) AppleWebKit/537.36 (KHTML, like Gecko) Chrome/75.0.3753.4 Safari/537.36"}}, "observation": {"11": {"stimulus": 80, "trial": 11, "rt": 7207}, "10": {"stimulus": 72, "trial": 10, "rt": 4168}, "1": {"stimulus": 80, "trial": 1, "rt": 3413}, "0": {"stimulus": 72, "trial": 0, "rt": 6685}, "3": {"stimulus": 0, "trial": 3, "rt": 3663}, "2": {"stimulus": 8, "trial": 2, "rt": 2430}, "5": {"stimulus": 72, "trial": 5, "rt": 1709}, "4": {"stimulus": 80, "trial": 4, "rt": 2278}, "7": {"stimulus": 8, "trial": 7, "rt": 2015}, "6": {"stimulus": 0, "trial": 6, "rt": 7320}, "9": {"stimulus": 0, "trial": 9, "rt": 1638}, "8": {"stimulus": 8, "trial": 8, "rt": 1680}}, "generation": {"1": {"category": "Beta", "trial": 1, "stimulus": 10, "rt": 627346}, "0": {"category": "Beta", "trial": 0, "stimulus": 19, "rt": 6260}, "3": {"category": "Beta", "trial": 3, "stimulus": 23, "rt": 4603}, "2": {"category": "Beta", "trial": 2, "stimulus": 47, "rt": 4302}}, "generalization": {"56": {"stimulus": 42, "trial": 56, "rt": 712, "response": "Alpha"}, "77": {"stimulus": 40, "trial": 77, "rt": 577, "response": "Beta"}, "54": {"stimulus": 72, "trial": 54, "rt": 479, "response": "Beta"}, "42": {"stimulus": 55, "trial": 42, "rt": 455, "response": "Beta"}, "48": {"stimulus": 6, "trial": 48, "rt": 455, "response": "Beta"}, "43": {"stimulus": 75, "trial": 43, "rt": 454, "response": "Beta"}, "60": {"stimulus": 14, "trial": 60, "rt": 477, "response": "Beta"}, "61": {"stimulus": 0, "trial": 61, "rt": 278, "response": "Beta"}, "62": {"stimulus": 78, "trial": 62, "rt": 486, "response": "Beta"}, "63": {"stimulus": 38, "trial": 63, "rt": 358, "response": "Beta"}, "64": {"stimulus": 62, "trial": 64, "rt": 359, "response": "Beta"}, "49": {"stimulus": 74, "trial": 49, "rt": 374, "response": "Beta"}, "66": {"stimulus": 5, "trial": 66, "rt": 694, "response": "Beta"}, "67": {"stimulus": 7, "trial": 67, "rt": 359, "response": "Beta"}, "68": {"stimulus": 66, "trial": 68, "rt": 206, "response": "Beta"}, "69": {"stimulus": 25, "trial": 69, "rt": 391, "response": "Beta"}, "80": {"stimulus": 52, "trial": 80, "rt": 375, "response": "Beta"}, "52": {"stimulus": 56, "trial": 52, "rt": 358, "response": "Beta"}, "53": {"stimulus": 11, "trial": 53, "rt": 2535, "response": "Beta"}, "24": {"stimulus": 71, "trial": 24, "rt": 951, "response": "Beta"}, "25": {"stimulus": 47, "trial": 25, "rt": 430, "response": "Beta"}, "26": {"stimulus": 4, "trial": 26, "rt": 590, "response": "Beta"}, "27": {"stimulus": 77, "trial": 27, "rt": 178, "response": "Beta"}, "20": {"stimulus": 18, "trial": 20, "rt": 7246, "response": "Beta"}, "21": {"stimulus": 65, "trial": 21, "rt": 489, "response": "Beta"}, "22": {"stimulus": 17, "trial": 22, "rt": 819, "response": "Beta"}, "23": {"stimulus": 67, "trial": 23, "rt": 166, "response": "Beta"}, "46": {"stimulus": 73, "trial": 46, "rt": 503, "response": "Beta"}, "47": {"stimulus": 27, "trial": 47, "rt": 318, "response": "Beta"}, "44": {"stimulus": 20, "trial": 44, "rt": 256, "response": "Beta"}, "45": {"stimulus": 34, "trial": 45, "rt": 388, "response": "Beta"}, "28": {"stimulus": 28, "trial": 28, "rt": 134, "response": "Beta"}, "29": {"stimulus": 16, "trial": 29, "rt": 174, "response": "Beta"}, "40": {"stimulus": 51, "trial": 40, "rt": 5397, "response": "Beta"}, "41": {"stimulus": 9, "trial": 41, "rt": 462, "response": "Beta"}, "1": {"stimulus": 33, "trial": 1, "rt": 7215, "response": "Beta"}, "0": {"stimulus": 13, "trial": 0, "rt": 1853, "response": "Beta"}, "3": {"stimulus": 68, "trial": 3, "rt": 1770, "response": "Beta"}, "2": {"stimulus": 70, "trial": 2, "rt": 38351, "response": "Beta"}, "5": {"stimulus": 32, "trial": 5, "rt": 669, "response": "Beta"}, "4": {"stimulus": 15, "trial": 4, "rt": 603, "response": "Beta"}, "7": {"stimulus": 45, "trial": 7, "rt": 399, "response": "Beta"}, "6": {"stimulus": 21, "trial": 6, "rt": 552, "response": "Beta"}, "9": {"stimulus": 43, "trial": 9, "rt": 870, "response": "Beta"}, "8": {"stimulus": 36, "trial": 8, "rt": 132, "response": "Beta"}, "78": {"stimulus": 30, "trial": 78, "rt": 522, "response": "Beta"}, "51": {"stimulus": 46, "trial": 51, "rt": 415, "response": "Beta"}, "39": {"stimulus": 61, "trial": 39, "rt": 83575, "response": "Beta"}, "65": {"stimulus": 41, "trial": 65, "rt": 358, "response": "Beta"}, "76": {"stimulus": 23, "trial": 76, "rt": 467, "response": "Beta"}, "75": {"stimulus": 2, "trial": 75, "rt": 440, "response": "Beta"}, "38": {"stimulus": 1, "trial": 38, "rt": 8550, "response": "Beta"}, "73": {"stimulus": 8, "trial": 73, "rt": 479, "response": "Beta"}, "72": {"stimulus": 79, "trial": 72, "rt": 351, "response": "Beta"}, "71": {"stimulus": 24, "trial": 71, "rt": 415, "response": "Beta"}, "70": {"stimulus": 64, "trial": 70, "rt": 343, "response": "Beta"}, "59": {"stimulus": 53, "trial": 59, "rt": 927, "response": "Beta"}, "79": {"stimulus": 69, "trial": 79, "rt": 517, "response": "Beta"}, "58": {"stimulus": 54, "trial": 58, "rt": 468, "response": "Alpha"}, "11": {"stimulus": 22, "trial": 11, "rt": 2007, "response": "Beta"}, "10": {"stimulus": 60, "trial": 10, "rt": 8557, "response": "Beta"}, "13": {"stimulus": 58, "trial": 13, "rt": 422, "response": "Beta"}, "12": {"stimulus": 50, "trial": 12, "rt": 454, "response": "Beta"}, "15": {"stimulus": 31, "trial": 15, "rt": 504, "response": "Beta"}, "14": {"stimulus": 49, "trial": 14, "rt": 381, "response": "Beta"}, "17": {"stimulus": 57, "trial": 17, "rt": 789, "response": "Alpha"}, "16": {"stimulus": 63, "trial": 16, "rt": 790, "response": "Alpha"}, "19": {"stimulus": 35, "trial": 19, "rt": 15685, "response": "Beta"}, "18": {"stimulus": 44, "trial": 18, "rt": 3591, "response": "Beta"}, "31": {"stimulus": 76, "trial": 31, "rt": 1213, "response": "Alpha"}, "30": {"stimulus": 80, "trial": 30, "rt": 3488, "response": "Beta"}, "37": {"stimulus": 12, "trial": 37, "rt": 414, "response": "Beta"}, "36": {"stimulus": 3, "trial": 36, "rt": 208, "response": "Beta"}, "35": {"stimulus": 59, "trial": 35, "rt": 422, "response": "Beta"}, "34": {"stimulus": 37, "trial": 34, "rt": 974, "response": "Beta"}, "33": {"stimulus": 19, "trial": 33, "rt": 816, "response": "Alpha"}, "55": {"stimulus": 26, "trial": 55, "rt": 566, "response": "Beta"}, "74": {"stimulus": 48, "trial": 74, "rt": 9792, "response": "Beta"}, "32": {"stimulus": 10, "trial": 32, "rt": 431, "response": "Beta"}, "57": {"stimulus": 0, "trial": 57, "rt": 327, "response": "Alpha"}, "50": {"stimulus": 29, "trial": 50, "rt": 415, "response": "Beta"}}, "experiment": {"Paradigm": "TACL", "Stimuli": "Size-Color Squares and Size-Orientation Circles", "Experiment": "Generating-Multiple-Categories"}, "submit": {"timeTotal": 1132496, "age": "27", "comments": "good", "sex": "male"}}