{"info": {"finish": 1554527382494, "participant": 88, "exposed": true, "lab": false, "start": 1554527177606, "counterbalance": 2, "stimtype": "Squares", "gentype": 1, "condition": "Corner_S", "browser": {"platform": "Win32", "userAgent": "Mozilla/5.0 (Windows NT 6.1; Win64; x64) AppleWebKit/537.36 (KHTML, like Gecko) Chrome/73.0.3683.86 Safari/537.36"}}, "observation": {"11": {"stimulus": 72, "trial": 11, "rt": 1656}, "10": {"stimulus": 8, "trial": 10, "rt": 1400}, "1": {"stimulus": 8, "trial": 1, "rt": 2031}, "0": {"stimulus": 80, "trial": 0, "rt": 2436}, "3": {"stimulus": 0, "trial": 3, "rt": 1936}, "2": {"stimulus": 72, "trial": 2, "rt": 1911}, "5": {"stimulus": 72, "trial": 5, "rt": 1544}, "4": {"stimulus": 80, "trial": 4, "rt": 1552}, "7": {"stimulus": 8, "trial": 7, "rt": 1279}, "6": {"stimulus": 0, "trial": 6, "rt": 1375}, "9": {"stimulus": 80, "trial": 9, "rt": 1159}, "8": {"stimulus": 0, "trial": 8, "rt": 1519}}, "generation": {"1": {"category": "Beta", "trial": 1, "stimulus": 73, "rt": 4420}, "0": {"category": "Beta", "trial": 0, "stimulus": 64, "rt": 16356}, "3": {"category": "Beta", "trial": 3, "stimulus": 65, "rt": 2742}, "2": {"category": "Beta", "trial": 2, "stimulus": 63, "rt": 4255}}, "generalization": {"56": {"stimulus": 38, "trial": 56, "rt": 448, "response": "Alpha"}, "77": {"stimulus": 30, "trial": 77, "rt": 607, "response": "Alpha"}, "54": {"stimulus": 26, "trial": 54, "rt": 504, "response": "Alpha"}, "42": {"stimulus": 54, "trial": 42, "rt": 311, "response": "Alpha"}, "48": {"stimulus": 63, "trial": 48, "rt": 615, "response": "Alpha"}, "43": {"stimulus": 73, "trial": 43, "rt": 295, "response": "Alpha"}, "60": {"stimulus": 11, "trial": 60, "rt": 495, "response": "Alpha"}, "61": {"stimulus": 59, "trial": 61, "rt": 360, "response": "Alpha"}, "62": {"stimulus": 74, "trial": 62, "rt": 335, "response": "Alpha"}, "63": {"stimulus": 77, "trial": 63, "rt": 239, "response": "Beta"}, "64": {"stimulus": 43, "trial": 64, "rt": 343, "response": "Alpha"}, "49": {"stimulus": 69, "trial": 49, "rt": 447, "response": "Alpha"}, "66": {"stimulus": 31, "trial": 66, "rt": 352, "response": "Alpha"}, "67": {"stimulus": 60, "trial": 67, "rt": 349, "response": "Beta"}, "68": {"stimulus": 46, "trial": 68, "rt": 1055, "response": "Alpha"}, "69": {"stimulus": 7, "trial": 69, "rt": 4157, "response": "Alpha"}, "80": {"stimulus": 35, "trial": 80, "rt": 1480, "response": "Alpha"}, "52": {"stimulus": 55, "trial": 52, "rt": 576, "response": "Alpha"}, "53": {"stimulus": 8, "trial": 53, "rt": 527, "response": "Alpha"}, "24": {"stimulus": 56, "trial": 24, "rt": 423, "response": "Alpha"}, "25": {"stimulus": 16, "trial": 25, "rt": 687, "response": "Alpha"}, "26": {"stimulus": 58, "trial": 26, "rt": 607, "response": "Beta"}, "27": {"stimulus": 50, "trial": 27, "rt": 800, "response": "Beta"}, "20": {"stimulus": 70, "trial": 20, "rt": 654, "response": "Alpha"}, "21": {"stimulus": 12, "trial": 21, "rt": 735, "response": "Alpha"}, "22": {"stimulus": 78, "trial": 22, "rt": 528, "response": "Alpha"}, "23": {"stimulus": 4, "trial": 23, "rt": 431, "response": "Alpha"}, "46": {"stimulus": 25, "trial": 46, "rt": 494, "response": "Alpha"}, "47": {"stimulus": 44, "trial": 47, "rt": 407, "response": "Alpha"}, "44": {"stimulus": 15, "trial": 44, "rt": 535, "response": "Alpha"}, "45": {"stimulus": 18, "trial": 45, "rt": 432, "response": "Alpha"}, "28": {"stimulus": 79, "trial": 28, "rt": 631, "response": "Alpha"}, "29": {"stimulus": 33, "trial": 29, "rt": 455, "response": "Beta"}, "40": {"stimulus": 3, "trial": 40, "rt": 382, "response": "Alpha"}, "41": {"stimulus": 36, "trial": 41, "rt": 426, "response": "Alpha"}, "1": {"stimulus": 75, "trial": 1, "rt": 566, "response": "Alpha"}, "0": {"stimulus": 49, "trial": 0, "rt": 1612, "response": "Alpha"}, "3": {"stimulus": 27, "trial": 3, "rt": 613, "response": "Beta"}, "2": {"stimulus": 42, "trial": 2, "rt": 632, "response": "Alpha"}, "5": {"stimulus": 80, "trial": 5, "rt": 454, "response": "Beta"}, "4": {"stimulus": 47, "trial": 4, "rt": 487, "response": "Alpha"}, "7": {"stimulus": 65, "trial": 7, "rt": 447, "response": "Alpha"}, "6": {"stimulus": 0, "trial": 6, "rt": 774, "response": "Alpha"}, "9": {"stimulus": 9, "trial": 9, "rt": 518, "response": "Alpha"}, "8": {"stimulus": 76, "trial": 8, "rt": 1559, "response": "Alpha"}, "78": {"stimulus": 37, "trial": 78, "rt": 671, "response": "Beta"}, "51": {"stimulus": 34, "trial": 51, "rt": 368, "response": "Alpha"}, "39": {"stimulus": 10, "trial": 39, "rt": 383, "response": "Alpha"}, "65": {"stimulus": 41, "trial": 65, "rt": 591, "response": "Beta"}, "76": {"stimulus": 19, "trial": 76, "rt": 1015, "response": "Alpha"}, "75": {"stimulus": 14, "trial": 75, "rt": 558, "response": "Alpha"}, "38": {"stimulus": 17, "trial": 38, "rt": 544, "response": "Alpha"}, "73": {"stimulus": 21, "trial": 73, "rt": 424, "response": "Beta"}, "72": {"stimulus": 67, "trial": 72, "rt": 823, "response": "Alpha"}, "71": {"stimulus": 23, "trial": 71, "rt": 392, "response": "Alpha"}, "70": {"stimulus": 13, "trial": 70, "rt": 599, "response": "Alpha"}, "59": {"stimulus": 52, "trial": 59, "rt": 439, "response": "Alpha"}, "79": {"stimulus": 1, "trial": 79, "rt": 1007, "response": "Alpha"}, "58": {"stimulus": 57, "trial": 58, "rt": 816, "response": "Alpha"}, "11": {"stimulus": 0, "trial": 11, "rt": 823, "response": "Alpha"}, "10": {"stimulus": 68, "trial": 10, "rt": 447, "response": "Alpha"}, "13": {"stimulus": 29, "trial": 13, "rt": 593, "response": "Alpha"}, "12": {"stimulus": 61, "trial": 12, "rt": 495, "response": "Alpha"}, "15": {"stimulus": 45, "trial": 15, "rt": 895, "response": "Beta"}, "14": {"stimulus": 2, "trial": 14, "rt": 549, "response": "Alpha"}, "17": {"stimulus": 53, "trial": 17, "rt": 640, "response": "Alpha"}, "16": {"stimulus": 28, "trial": 16, "rt": 1160, "response": "Alpha"}, "19": {"stimulus": 40, "trial": 19, "rt": 447, "response": "Alpha"}, "18": {"stimulus": 22, "trial": 18, "rt": 456, "response": "Alpha"}, "31": {"stimulus": 66, "trial": 31, "rt": 399, "response": "Alpha"}, "30": {"stimulus": 24, "trial": 30, "rt": 512, "response": "Alpha"}, "37": {"stimulus": 51, "trial": 37, "rt": 591, "response": "Alpha"}, "36": {"stimulus": 62, "trial": 36, "rt": 815, "response": "Alpha"}, "35": {"stimulus": 72, "trial": 35, "rt": 1119, "response": "Alpha"}, "34": {"stimulus": 6, "trial": 34, "rt": 631, "response": "Beta"}, "33": {"stimulus": 48, "trial": 33, "rt": 598, "response": "Alpha"}, "55": {"stimulus": 64, "trial": 55, "rt": 390, "response": "Alpha"}, "74": {"stimulus": 20, "trial": 74, "rt": 478, "response": "Alpha"}, "32": {"stimulus": 5, "trial": 32, "rt": 696, "response": "Alpha"}, "57": {"stimulus": 32, "trial": 57, "rt": 785, "response": "Alpha"}, "50": {"stimulus": 71, "trial": 50, "rt": 390, "response": "Alpha"}}, "experiment": {"Paradigm": "TACL", "Stimuli": "Size-Color Squares and Size-Orientation Circles", "Experiment": "Generating-Multiple-Categories"}, "submit": {"timeTotal": 205860, "age": "21", "comments": "good one", "sex": "male"}}