{"info": {"finish": 1554530172515, "participant": 89, "exposed": true, "lab": false, "start": 1554529890617, "counterbalance": 0, "stimtype": "Circles", "gentype": 1, "condition": "Corner_C", "browser": {"platform": "Win32", "userAgent": "Mozilla/5.0 (Windows NT 6.3; Win64; x64) AppleWebKit/537.36 (KHTML, like Gecko) Chrome/73.0.3683.86 Safari/537.36"}}, "observation": {"11": {"stimulus": 80, "trial": 11, "rt": 1771}, "10": {"stimulus": 0, "trial": 10, "rt": 1074}, "1": {"stimulus": 0, "trial": 1, "rt": 1959}, "0": {"stimulus": 8, "trial": 0, "rt": 6257}, "3": {"stimulus": 72, "trial": 3, "rt": 19573}, "2": {"stimulus": 80, "trial": 2, "rt": 6236}, "5": {"stimulus": 0, "trial": 5, "rt": 3767}, "4": {"stimulus": 8, "trial": 4, "rt": 37204}, "7": {"stimulus": 80, "trial": 7, "rt": 1417}, "6": {"stimulus": 72, "trial": 6, "rt": 2234}, "9": {"stimulus": 8, "trial": 9, "rt": 1348}, "8": {"stimulus": 72, "trial": 8, "rt": 1394}}, "generation": {"1": {"category": "Beta", "trial": 1, "stimulus": 43, "rt": 8001}, "0": {"category": "Beta", "trial": 0, "stimulus": 70, "rt": 5294}, "3": {"category": "Beta", "trial": 3, "stimulus": 61, "rt": 4278}, "2": {"category": "Beta", "trial": 2, "stimulus": 62, "rt": 4120}}, "generalization": {"56": {"stimulus": 62, "trial": 56, "rt": 431, "response": "Beta"}, "77": {"stimulus": 40, "trial": 77, "rt": 552, "response": "Alpha"}, "54": {"stimulus": 79, "trial": 54, "rt": 668, "response": "Beta"}, "42": {"stimulus": 48, "trial": 42, "rt": 1446, "response": "Beta"}, "48": {"stimulus": 2, "trial": 48, "rt": 1356, "response": "Alpha"}, "43": {"stimulus": 76, "trial": 43, "rt": 3062, "response": "Alpha"}, "60": {"stimulus": 56, "trial": 60, "rt": 628, "response": "Beta"}, "61": {"stimulus": 50, "trial": 61, "rt": 459, "response": "Alpha"}, "62": {"stimulus": 57, "trial": 62, "rt": 1240, "response": "Alpha"}, "63": {"stimulus": 58, "trial": 63, "rt": 84, "response": "Alpha"}, "64": {"stimulus": 42, "trial": 64, "rt": 3791, "response": "Beta"}, "49": {"stimulus": 1, "trial": 49, "rt": 5020, "response": "Alpha"}, "66": {"stimulus": 61, "trial": 66, "rt": 674, "response": "Alpha"}, "67": {"stimulus": 45, "trial": 67, "rt": 675, "response": "Alpha"}, "68": {"stimulus": 22, "trial": 68, "rt": 495, "response": "Alpha"}, "69": {"stimulus": 43, "trial": 69, "rt": 414, "response": "Alpha"}, "80": {"stimulus": 47, "trial": 80, "rt": 503, "response": "Beta"}, "52": {"stimulus": 60, "trial": 52, "rt": 369, "response": "Beta"}, "53": {"stimulus": 28, "trial": 53, "rt": 422, "response": "Alpha"}, "24": {"stimulus": 59, "trial": 24, "rt": 609, "response": "Alpha"}, "25": {"stimulus": 67, "trial": 25, "rt": 256, "response": "Beta"}, "26": {"stimulus": 20, "trial": 26, "rt": 867, "response": "Alpha"}, "27": {"stimulus": 74, "trial": 27, "rt": 1157, "response": "Alpha"}, "20": {"stimulus": 10, "trial": 20, "rt": 443, "response": "Alpha"}, "21": {"stimulus": 44, "trial": 21, "rt": 724, "response": "Beta"}, "22": {"stimulus": 75, "trial": 22, "rt": 369, "response": "Alpha"}, "23": {"stimulus": 66, "trial": 23, "rt": 460, "response": "Beta"}, "46": {"stimulus": 25, "trial": 46, "rt": 838, "response": "Alpha"}, "47": {"stimulus": 13, "trial": 47, "rt": 751, "response": "Alpha"}, "44": {"stimulus": 34, "trial": 44, "rt": 1574, "response": "Alpha"}, "45": {"stimulus": 11, "trial": 45, "rt": 620, "response": "Alpha"}, "28": {"stimulus": 24, "trial": 28, "rt": 972, "response": "Alpha"}, "29": {"stimulus": 27, "trial": 29, "rt": 1170, "response": "Alpha"}, "40": {"stimulus": 52, "trial": 40, "rt": 1471, "response": "Beta"}, "41": {"stimulus": 12, "trial": 41, "rt": 1445, "response": "Beta"}, "1": {"stimulus": 77, "trial": 1, "rt": 428, "response": "Alpha"}, "0": {"stimulus": 49, "trial": 0, "rt": 1808, "response": "Beta"}, "3": {"stimulus": 33, "trial": 3, "rt": 539, "response": "Beta"}, "2": {"stimulus": 54, "trial": 2, "rt": 444, "response": "Alpha"}, "5": {"stimulus": 65, "trial": 5, "rt": 575, "response": "Alpha"}, "4": {"stimulus": 51, "trial": 4, "rt": 532, "response": "Alpha"}, "7": {"stimulus": 5, "trial": 7, "rt": 2402, "response": "Alpha"}, "6": {"stimulus": 80, "trial": 6, "rt": 2079, "response": "Beta"}, "9": {"stimulus": 35, "trial": 9, "rt": 434, "response": "Alpha"}, "8": {"stimulus": 46, "trial": 8, "rt": 2767, "response": "Beta"}, "78": {"stimulus": 55, "trial": 78, "rt": 742, "response": "Alpha"}, "51": {"stimulus": 14, "trial": 51, "rt": 488, "response": "Alpha"}, "39": {"stimulus": 18, "trial": 39, "rt": 909, "response": "Alpha"}, "65": {"stimulus": 16, "trial": 65, "rt": 431, "response": "Alpha"}, "76": {"stimulus": 70, "trial": 76, "rt": 516, "response": "Alpha"}, "75": {"stimulus": 23, "trial": 75, "rt": 524, "response": "Alpha"}, "38": {"stimulus": 68, "trial": 38, "rt": 637, "response": "Alpha"}, "73": {"stimulus": 3, "trial": 73, "rt": 604, "response": "Alpha"}, "72": {"stimulus": 36, "trial": 72, "rt": 503, "response": "Alpha"}, "71": {"stimulus": 9, "trial": 71, "rt": 476, "response": "Alpha"}, "70": {"stimulus": 7, "trial": 70, "rt": 706, "response": "Beta"}, "59": {"stimulus": 38, "trial": 59, "rt": 398, "response": "Alpha"}, "79": {"stimulus": 6, "trial": 79, "rt": 977, "response": "Alpha"}, "58": {"stimulus": 0, "trial": 58, "rt": 388, "response": "Beta"}, "11": {"stimulus": 32, "trial": 11, "rt": 732, "response": "Alpha"}, "10": {"stimulus": 37, "trial": 10, "rt": 627, "response": "Alpha"}, "13": {"stimulus": 8, "trial": 13, "rt": 563, "response": "Alpha"}, "12": {"stimulus": 26, "trial": 12, "rt": 313, "response": "Alpha"}, "15": {"stimulus": 64, "trial": 15, "rt": 468, "response": "Beta"}, "14": {"stimulus": 31, "trial": 14, "rt": 567, "response": "Beta"}, "17": {"stimulus": 0, "trial": 17, "rt": 349, "response": "Alpha"}, "16": {"stimulus": 19, "trial": 16, "rt": 277, "response": "Alpha"}, "19": {"stimulus": 72, "trial": 19, "rt": 687, "response": "Alpha"}, "18": {"stimulus": 41, "trial": 18, "rt": 421, "response": "Beta"}, "31": {"stimulus": 69, "trial": 31, "rt": 231, "response": "Alpha"}, "30": {"stimulus": 73, "trial": 30, "rt": 767, "response": "Beta"}, "37": {"stimulus": 30, "trial": 37, "rt": 363, "response": "Alpha"}, "36": {"stimulus": 53, "trial": 36, "rt": 801, "response": "Alpha"}, "35": {"stimulus": 63, "trial": 35, "rt": 535, "response": "Alpha"}, "34": {"stimulus": 21, "trial": 34, "rt": 477, "response": "Alpha"}, "33": {"stimulus": 4, "trial": 33, "rt": 330, "response": "Alpha"}, "55": {"stimulus": 15, "trial": 55, "rt": 326, "response": "Alpha"}, "74": {"stimulus": 29, "trial": 74, "rt": 322, "response": "Alpha"}, "32": {"stimulus": 78, "trial": 32, "rt": 950, "response": "Beta"}, "57": {"stimulus": 71, "trial": 57, "rt": 244, "response": "Alpha"}, "50": {"stimulus": 17, "trial": 50, "rt": 628, "response": "Alpha"}}, "experiment": {"Paradigm": "TACL", "Stimuli": "Size-Color Squares and Size-Orientation Circles", "Experiment": "Generating-Multiple-Categories"}, "submit": {"timeTotal": 282884, "age": "65", "comments": "good one", "sex": "male"}}