{"info": {"finish": 1554493452205, "participant": 9, "exposed": true, "lab": false, "start": 1554493202200, "counterbalance": 6, "stimtype": "Squares", "gentype": 1, "condition": "Corner_S", "browser": {"platform": "Win32", "userAgent": "Mozilla/5.0 (Windows NT 10.0; Win64; x64) AppleWebKit/537.36 (KHTML, like Gecko) Chrome/73.0.3683.86 Safari/537.36"}}, "observation": {"11": {"stimulus": 72, "trial": 11, "rt": 1297}, "10": {"stimulus": 80, "trial": 10, "rt": 1345}, "1": {"stimulus": 80, "trial": 1, "rt": 1516}, "0": {"stimulus": 72, "trial": 0, "rt": 2745}, "3": {"stimulus": 0, "trial": 3, "rt": 1370}, "2": {"stimulus": 8, "trial": 2, "rt": 1396}, "5": {"stimulus": 0, "trial": 5, "rt": 1303}, "4": {"stimulus": 72, "trial": 4, "rt": 1360}, "7": {"stimulus": 80, "trial": 7, "rt": 1411}, "6": {"stimulus": 8, "trial": 6, "rt": 1346}, "9": {"stimulus": 0, "trial": 9, "rt": 1325}, "8": {"stimulus": 8, "trial": 8, "rt": 1352}}, "generation": {"1": {"category": "Beta", "trial": 1, "stimulus": 4, "rt": 4579}, "0": {"category": "Beta", "trial": 0, "stimulus": 67, "rt": 8379}, "3": {"category": "Beta", "trial": 3, "stimulus": 77, "rt": 9047}, "2": {"category": "Beta", "trial": 2, "stimulus": 5, "rt": 12008}}, "generalization": {"56": {"stimulus": 73, "trial": 56, "rt": 1489, "response": "Beta"}, "77": {"stimulus": 69, "trial": 77, "rt": 751, "response": "Beta"}, "54": {"stimulus": 28, "trial": 54, "rt": 1935, "response": "Alpha"}, "42": {"stimulus": 46, "trial": 42, "rt": 1373, "response": "Alpha"}, "48": {"stimulus": 7, "trial": 48, "rt": 748, "response": "Alpha"}, "43": {"stimulus": 58, "trial": 43, "rt": 671, "response": "Beta"}, "60": {"stimulus": 55, "trial": 60, "rt": 975, "response": "Alpha"}, "61": {"stimulus": 51, "trial": 61, "rt": 886, "response": "Beta"}, "62": {"stimulus": 38, "trial": 62, "rt": 728, "response": "Beta"}, "63": {"stimulus": 74, "trial": 63, "rt": 742, "response": "Beta"}, "64": {"stimulus": 1, "trial": 64, "rt": 669, "response": "Alpha"}, "49": {"stimulus": 56, "trial": 49, "rt": 696, "response": "Beta"}, "66": {"stimulus": 4, "trial": 66, "rt": 691, "response": "Beta"}, "67": {"stimulus": 54, "trial": 67, "rt": 577, "response": "Alpha"}, "68": {"stimulus": 40, "trial": 68, "rt": 679, "response": "Beta"}, "69": {"stimulus": 31, "trial": 69, "rt": 650, "response": "Beta"}, "80": {"stimulus": 70, "trial": 80, "rt": 694, "response": "Alpha"}, "52": {"stimulus": 17, "trial": 52, "rt": 598, "response": "Alpha"}, "53": {"stimulus": 33, "trial": 53, "rt": 942, "response": "Beta"}, "24": {"stimulus": 37, "trial": 24, "rt": 2040, "response": "Alpha"}, "25": {"stimulus": 19, "trial": 25, "rt": 4050, "response": "Alpha"}, "26": {"stimulus": 13, "trial": 26, "rt": 726, "response": "Beta"}, "27": {"stimulus": 41, "trial": 27, "rt": 759, "response": "Beta"}, "20": {"stimulus": 77, "trial": 20, "rt": 1377, "response": "Beta"}, "21": {"stimulus": 35, "trial": 21, "rt": 633, "response": "Alpha"}, "22": {"stimulus": 71, "trial": 22, "rt": 571, "response": "Alpha"}, "23": {"stimulus": 80, "trial": 23, "rt": 508, "response": "Alpha"}, "46": {"stimulus": 8, "trial": 46, "rt": 575, "response": "Alpha"}, "47": {"stimulus": 25, "trial": 47, "rt": 465, "response": "Alpha"}, "44": {"stimulus": 30, "trial": 44, "rt": 1188, "response": "Beta"}, "45": {"stimulus": 75, "trial": 45, "rt": 792, "response": "Beta"}, "28": {"stimulus": 34, "trial": 28, "rt": 806, "response": "Alpha"}, "29": {"stimulus": 36, "trial": 29, "rt": 1112, "response": "Alpha"}, "40": {"stimulus": 44, "trial": 40, "rt": 622, "response": "Alpha"}, "41": {"stimulus": 50, "trial": 41, "rt": 762, "response": "Beta"}, "1": {"stimulus": 60, "trial": 1, "rt": 2374, "response": "Alpha"}, "0": {"stimulus": 10, "trial": 0, "rt": 2063, "response": "Beta"}, "3": {"stimulus": 57, "trial": 3, "rt": 926, "response": "Beta"}, "2": {"stimulus": 45, "trial": 2, "rt": 1327, "response": "Alpha"}, "5": {"stimulus": 9, "trial": 5, "rt": 951, "response": "Alpha"}, "4": {"stimulus": 79, "trial": 4, "rt": 2216, "response": "Beta"}, "7": {"stimulus": 16, "trial": 7, "rt": 1337, "response": "Alpha"}, "6": {"stimulus": 63, "trial": 6, "rt": 666, "response": "Alpha"}, "9": {"stimulus": 65, "trial": 9, "rt": 1455, "response": "Beta"}, "8": {"stimulus": 11, "trial": 8, "rt": 1258, "response": "Beta"}, "78": {"stimulus": 2, "trial": 78, "rt": 928, "response": "Beta"}, "51": {"stimulus": 12, "trial": 51, "rt": 597, "response": "Beta"}, "39": {"stimulus": 0, "trial": 39, "rt": 815, "response": "Alpha"}, "65": {"stimulus": 18, "trial": 65, "rt": 547, "response": "Alpha"}, "76": {"stimulus": 15, "trial": 76, "rt": 1271, "response": "Beta"}, "75": {"stimulus": 76, "trial": 75, "rt": 755, "response": "Beta"}, "38": {"stimulus": 59, "trial": 38, "rt": 943, "response": "Beta"}, "73": {"stimulus": 23, "trial": 73, "rt": 743, "response": "Beta"}, "72": {"stimulus": 61, "trial": 72, "rt": 629, "response": "Alpha"}, "71": {"stimulus": 29, "trial": 71, "rt": 580, "response": "Beta"}, "70": {"stimulus": 49, "trial": 70, "rt": 595, "response": "Beta"}, "59": {"stimulus": 68, "trial": 59, "rt": 653, "response": "Beta"}, "79": {"stimulus": 48, "trial": 79, "rt": 685, "response": "Beta"}, "58": {"stimulus": 6, "trial": 58, "rt": 751, "response": "Beta"}, "11": {"stimulus": 20, "trial": 11, "rt": 1006, "response": "Beta"}, "10": {"stimulus": 21, "trial": 10, "rt": 838, "response": "Beta"}, "13": {"stimulus": 42, "trial": 13, "rt": 1035, "response": "Beta"}, "12": {"stimulus": 53, "trial": 12, "rt": 893, "response": "Alpha"}, "15": {"stimulus": 64, "trial": 15, "rt": 606, "response": "Alpha"}, "14": {"stimulus": 5, "trial": 14, "rt": 1663, "response": "Beta"}, "17": {"stimulus": 62, "trial": 17, "rt": 928, "response": "Alpha"}, "16": {"stimulus": 67, "trial": 16, "rt": 768, "response": "Beta"}, "19": {"stimulus": 22, "trial": 19, "rt": 762, "response": "Beta"}, "18": {"stimulus": 3, "trial": 18, "rt": 854, "response": "Beta"}, "31": {"stimulus": 43, "trial": 31, "rt": 1583, "response": "Alpha"}, "30": {"stimulus": 24, "trial": 30, "rt": 1536, "response": "Beta"}, "37": {"stimulus": 32, "trial": 37, "rt": 994, "response": "Beta"}, "36": {"stimulus": 26, "trial": 36, "rt": 790, "response": "Alpha"}, "35": {"stimulus": 47, "trial": 35, "rt": 865, "response": "Beta"}, "34": {"stimulus": 72, "trial": 34, "rt": 504, "response": "Alpha"}, "33": {"stimulus": 27, "trial": 33, "rt": 915, "response": "Alpha"}, "55": {"stimulus": 78, "trial": 55, "rt": 965, "response": "Beta"}, "74": {"stimulus": 66, "trial": 74, "rt": 1181, "response": "Beta"}, "32": {"stimulus": 52, "trial": 32, "rt": 880, "response": "Alpha"}, "57": {"stimulus": 14, "trial": 57, "rt": 978, "response": "Beta"}, "50": {"stimulus": 0, "trial": 50, "rt": 450, "response": "Alpha"}}, "experiment": {"Paradigm": "TACL", "Stimuli": "Size-Color Squares and Size-Orientation Circles", "Experiment": "Generating-Multiple-Categories"}, "submit": {"timeTotal": 250200, "age": "25", "comments": "", "sex": "Male"}}