{"info": {"finish": 1554530810580, "participant": 91, "exposed": true, "lab": false, "start": 1554529940917, "counterbalance": 7, "stimtype": "Squares", "gentype": 1, "condition": "Corner_S", "browser": {"platform": "Win32", "userAgent": "Mozilla/5.0 (Windows NT 6.1) AppleWebKit/537.36 (KHTML, like Gecko) Chrome/73.0.3683.103 Safari/537.36"}}, "observation": {"11": {"stimulus": 8, "trial": 11, "rt": 1749}, "10": {"stimulus": 72, "trial": 10, "rt": 1655}, "1": {"stimulus": 80, "trial": 1, "rt": 1880}, "0": {"stimulus": 72, "trial": 0, "rt": 535552}, "3": {"stimulus": 0, "trial": 3, "rt": 1722}, "2": {"stimulus": 8, "trial": 2, "rt": 2173}, "5": {"stimulus": 0, "trial": 5, "rt": 1995}, "4": {"stimulus": 72, "trial": 4, "rt": 1775}, "7": {"stimulus": 80, "trial": 7, "rt": 1461}, "6": {"stimulus": 8, "trial": 6, "rt": 1563}, "9": {"stimulus": 80, "trial": 9, "rt": 1544}, "8": {"stimulus": 0, "trial": 8, "rt": 1604}}, "generation": {"1": {"category": "Beta", "trial": 1, "stimulus": 20, "rt": 6948}, "0": {"category": "Beta", "trial": 0, "stimulus": 11, "rt": 8381}, "3": {"category": "Beta", "trial": 3, "stimulus": 18, "rt": 9462}, "2": {"category": "Beta", "trial": 2, "stimulus": 19, "rt": 8806}}, "generalization": {"56": {"stimulus": 27, "trial": 56, "rt": 406, "response": "Alpha"}, "77": {"stimulus": 71, "trial": 77, "rt": 512, "response": "Alpha"}, "54": {"stimulus": 33, "trial": 54, "rt": 461, "response": "Alpha"}, "42": {"stimulus": 30, "trial": 42, "rt": 503, "response": "Alpha"}, "48": {"stimulus": 54, "trial": 48, "rt": 423, "response": "Alpha"}, "43": {"stimulus": 62, "trial": 43, "rt": 486, "response": "Beta"}, "60": {"stimulus": 29, "trial": 60, "rt": 405, "response": "Alpha"}, "61": {"stimulus": 7, "trial": 61, "rt": 766, "response": "Beta"}, "62": {"stimulus": 9, "trial": 62, "rt": 717, "response": "Alpha"}, "63": {"stimulus": 48, "trial": 63, "rt": 454, "response": "Beta"}, "64": {"stimulus": 63, "trial": 64, "rt": 704, "response": "Alpha"}, "49": {"stimulus": 42, "trial": 49, "rt": 588, "response": "Beta"}, "66": {"stimulus": 64, "trial": 66, "rt": 774, "response": "Alpha"}, "67": {"stimulus": 18, "trial": 67, "rt": 453, "response": "Beta"}, "68": {"stimulus": 69, "trial": 68, "rt": 511, "response": "Alpha"}, "69": {"stimulus": 22, "trial": 69, "rt": 382, "response": "Beta"}, "80": {"stimulus": 36, "trial": 80, "rt": 339, "response": "Alpha"}, "52": {"stimulus": 8, "trial": 52, "rt": 770, "response": "Alpha"}, "53": {"stimulus": 46, "trial": 53, "rt": 442, "response": "Beta"}, "24": {"stimulus": 61, "trial": 24, "rt": 383, "response": "Alpha"}, "25": {"stimulus": 72, "trial": 25, "rt": 521, "response": "Alpha"}, "26": {"stimulus": 3, "trial": 26, "rt": 453, "response": "Alpha"}, "27": {"stimulus": 50, "trial": 27, "rt": 761, "response": "Alpha"}, "20": {"stimulus": 2, "trial": 20, "rt": 2815, "response": "Beta"}, "21": {"stimulus": 17, "trial": 21, "rt": 566, "response": "Alpha"}, "22": {"stimulus": 58, "trial": 22, "rt": 494, "response": "Alpha"}, "23": {"stimulus": 26, "trial": 23, "rt": 438, "response": "Alpha"}, "46": {"stimulus": 1, "trial": 46, "rt": 470, "response": "Alpha"}, "47": {"stimulus": 0, "trial": 47, "rt": 688, "response": "Beta"}, "44": {"stimulus": 37, "trial": 44, "rt": 351, "response": "Alpha"}, "45": {"stimulus": 34, "trial": 45, "rt": 684, "response": "Beta"}, "28": {"stimulus": 5, "trial": 28, "rt": 729, "response": "Alpha"}, "29": {"stimulus": 38, "trial": 29, "rt": 738, "response": "Alpha"}, "40": {"stimulus": 10, "trial": 40, "rt": 477, "response": "Alpha"}, "41": {"stimulus": 59, "trial": 41, "rt": 403, "response": "Beta"}, "1": {"stimulus": 31, "trial": 1, "rt": 969, "response": "Beta"}, "0": {"stimulus": 67, "trial": 0, "rt": 1501, "response": "Alpha"}, "3": {"stimulus": 53, "trial": 3, "rt": 550, "response": "Beta"}, "2": {"stimulus": 0, "trial": 2, "rt": 569, "response": "Alpha"}, "5": {"stimulus": 70, "trial": 5, "rt": 532, "response": "Beta"}, "4": {"stimulus": 73, "trial": 4, "rt": 478, "response": "Alpha"}, "7": {"stimulus": 43, "trial": 7, "rt": 619, "response": "Beta"}, "6": {"stimulus": 4, "trial": 6, "rt": 510, "response": "Alpha"}, "9": {"stimulus": 15, "trial": 9, "rt": 431, "response": "Beta"}, "8": {"stimulus": 11, "trial": 8, "rt": 542, "response": "Alpha"}, "78": {"stimulus": 20, "trial": 78, "rt": 390, "response": "Alpha"}, "51": {"stimulus": 6, "trial": 51, "rt": 407, "response": "Beta"}, "39": {"stimulus": 66, "trial": 39, "rt": 440, "response": "Beta"}, "65": {"stimulus": 14, "trial": 65, "rt": 495, "response": "Beta"}, "76": {"stimulus": 78, "trial": 76, "rt": 399, "response": "Alpha"}, "75": {"stimulus": 76, "trial": 75, "rt": 737, "response": "Beta"}, "38": {"stimulus": 77, "trial": 38, "rt": 359, "response": "Alpha"}, "73": {"stimulus": 56, "trial": 73, "rt": 383, "response": "Beta"}, "72": {"stimulus": 55, "trial": 72, "rt": 454, "response": "Alpha"}, "71": {"stimulus": 75, "trial": 71, "rt": 518, "response": "Beta"}, "70": {"stimulus": 79, "trial": 70, "rt": 463, "response": "Alpha"}, "59": {"stimulus": 44, "trial": 59, "rt": 615, "response": "Beta"}, "79": {"stimulus": 23, "trial": 79, "rt": 344, "response": "Alpha"}, "58": {"stimulus": 45, "trial": 58, "rt": 807, "response": "Alpha"}, "11": {"stimulus": 21, "trial": 11, "rt": 450, "response": "Beta"}, "10": {"stimulus": 16, "trial": 10, "rt": 519, "response": "Alpha"}, "13": {"stimulus": 40, "trial": 13, "rt": 671, "response": "Beta"}, "12": {"stimulus": 19, "trial": 12, "rt": 672, "response": "Alpha"}, "15": {"stimulus": 52, "trial": 15, "rt": 599, "response": "Beta"}, "14": {"stimulus": 24, "trial": 14, "rt": 806, "response": "Alpha"}, "17": {"stimulus": 47, "trial": 17, "rt": 431, "response": "Beta"}, "16": {"stimulus": 68, "trial": 16, "rt": 651, "response": "Alpha"}, "19": {"stimulus": 35, "trial": 19, "rt": 3005, "response": "Alpha"}, "18": {"stimulus": 65, "trial": 18, "rt": 672, "response": "Alpha"}, "31": {"stimulus": 28, "trial": 31, "rt": 421, "response": "Alpha"}, "30": {"stimulus": 32, "trial": 30, "rt": 568, "response": "Beta"}, "37": {"stimulus": 57, "trial": 37, "rt": 542, "response": "Alpha"}, "36": {"stimulus": 80, "trial": 36, "rt": 550, "response": "Alpha"}, "35": {"stimulus": 25, "trial": 35, "rt": 448, "response": "Alpha"}, "34": {"stimulus": 13, "trial": 34, "rt": 622, "response": "Alpha"}, "33": {"stimulus": 12, "trial": 33, "rt": 506, "response": "Alpha"}, "55": {"stimulus": 60, "trial": 55, "rt": 384, "response": "Beta"}, "74": {"stimulus": 41, "trial": 74, "rt": 788, "response": "Alpha"}, "32": {"stimulus": 51, "trial": 32, "rt": 647, "response": "Alpha"}, "57": {"stimulus": 74, "trial": 57, "rt": 456, "response": "Beta"}, "50": {"stimulus": 49, "trial": 50, "rt": 497, "response": "Alpha"}}, "experiment": {"Paradigm": "TACL", "Stimuli": "Size-Color Squares and Size-Orientation Circles", "Experiment": "Generating-Multiple-Categories"}, "submit": {"timeTotal": 869685, "age": "30", "comments": "very nice", "sex": "female"}}