{"info": {"finish": 1554530379171, "participant": 92, "exposed": true, "lab": false, "start": 1554529954132, "counterbalance": 1, "stimtype": "Circles", "gentype": 1, "condition": "Corner_C", "browser": {"platform": "Win32", "userAgent": "Mozilla/5.0 (Windows NT 6.1) AppleWebKit/537.36 (KHTML, like Gecko) Chrome/73.0.3683.103 Safari/537.36"}}, "observation": {"11": {"stimulus": 72, "trial": 11, "rt": 12010}, "10": {"stimulus": 0, "trial": 10, "rt": 11630}, "1": {"stimulus": 72, "trial": 1, "rt": 3410}, "0": {"stimulus": 80, "trial": 0, "rt": 10914}, "3": {"stimulus": 0, "trial": 3, "rt": 2845}, "2": {"stimulus": 8, "trial": 2, "rt": 3038}, "5": {"stimulus": 0, "trial": 5, "rt": 3669}, "4": {"stimulus": 80, "trial": 4, "rt": 3844}, "7": {"stimulus": 72, "trial": 7, "rt": 2271}, "6": {"stimulus": 8, "trial": 6, "rt": 3467}, "9": {"stimulus": 80, "trial": 9, "rt": 2183}, "8": {"stimulus": 8, "trial": 8, "rt": 2774}}, "generation": {"1": {"category": "Beta", "trial": 1, "stimulus": 7, "rt": 26988}, "0": {"category": "Beta", "trial": 0, "stimulus": 6, "rt": 28999}, "3": {"category": "Beta", "trial": 3, "stimulus": 25, "rt": 4685}, "2": {"category": "Beta", "trial": 2, "stimulus": 24, "rt": 4196}}, "generalization": {"56": {"stimulus": 43, "trial": 56, "rt": 742, "response": "Alpha"}, "77": {"stimulus": 65, "trial": 77, "rt": 3408, "response": "Alpha"}, "54": {"stimulus": 62, "trial": 54, "rt": 758, "response": "Alpha"}, "42": {"stimulus": 52, "trial": 42, "rt": 2971, "response": "Alpha"}, "48": {"stimulus": 54, "trial": 48, "rt": 484, "response": "Alpha"}, "43": {"stimulus": 61, "trial": 43, "rt": 806, "response": "Alpha"}, "60": {"stimulus": 56, "trial": 60, "rt": 597, "response": "Alpha"}, "61": {"stimulus": 26, "trial": 61, "rt": 4806, "response": "Alpha"}, "62": {"stimulus": 34, "trial": 62, "rt": 3344, "response": "Alpha"}, "63": {"stimulus": 68, "trial": 63, "rt": 717, "response": "Alpha"}, "64": {"stimulus": 66, "trial": 64, "rt": 1688, "response": "Alpha"}, "49": {"stimulus": 12, "trial": 49, "rt": 595, "response": "Alpha"}, "66": {"stimulus": 40, "trial": 66, "rt": 642, "response": "Alpha"}, "67": {"stimulus": 48, "trial": 67, "rt": 372, "response": "Alpha"}, "68": {"stimulus": 75, "trial": 68, "rt": 470, "response": "Alpha"}, "69": {"stimulus": 47, "trial": 69, "rt": 568, "response": "Beta"}, "80": {"stimulus": 50, "trial": 80, "rt": 544, "response": "Alpha"}, "52": {"stimulus": 60, "trial": 52, "rt": 677, "response": "Beta"}, "53": {"stimulus": 14, "trial": 53, "rt": 640, "response": "Alpha"}, "24": {"stimulus": 15, "trial": 24, "rt": 1469, "response": "Alpha"}, "25": {"stimulus": 11, "trial": 25, "rt": 2050, "response": "Beta"}, "26": {"stimulus": 64, "trial": 26, "rt": 2000, "response": "Alpha"}, "27": {"stimulus": 32, "trial": 27, "rt": 4262, "response": "Beta"}, "20": {"stimulus": 41, "trial": 20, "rt": 636, "response": "Alpha"}, "21": {"stimulus": 29, "trial": 21, "rt": 1511, "response": "Beta"}, "22": {"stimulus": 18, "trial": 22, "rt": 1011, "response": "Alpha"}, "23": {"stimulus": 10, "trial": 23, "rt": 2511, "response": "Beta"}, "46": {"stimulus": 31, "trial": 46, "rt": 499, "response": "Alpha"}, "47": {"stimulus": 5, "trial": 47, "rt": 471, "response": "Alpha"}, "44": {"stimulus": 63, "trial": 44, "rt": 2597, "response": "Alpha"}, "45": {"stimulus": 70, "trial": 45, "rt": 2019, "response": "Alpha"}, "28": {"stimulus": 2, "trial": 28, "rt": 1879, "response": "Alpha"}, "29": {"stimulus": 51, "trial": 29, "rt": 975, "response": "Alpha"}, "40": {"stimulus": 49, "trial": 40, "rt": 896, "response": "Alpha"}, "41": {"stimulus": 22, "trial": 41, "rt": 1139, "response": "Alpha"}, "1": {"stimulus": 9, "trial": 1, "rt": 1818, "response": "Beta"}, "0": {"stimulus": 24, "trial": 0, "rt": 3393, "response": "Alpha"}, "3": {"stimulus": 45, "trial": 3, "rt": 1156, "response": "Beta"}, "2": {"stimulus": 79, "trial": 2, "rt": 1568, "response": "Alpha"}, "5": {"stimulus": 73, "trial": 5, "rt": 1080, "response": "Alpha"}, "4": {"stimulus": 0, "trial": 4, "rt": 836, "response": "Alpha"}, "7": {"stimulus": 21, "trial": 7, "rt": 1983, "response": "Alpha"}, "6": {"stimulus": 25, "trial": 6, "rt": 1129, "response": "Alpha"}, "9": {"stimulus": 57, "trial": 9, "rt": 1939, "response": "Alpha"}, "8": {"stimulus": 13, "trial": 8, "rt": 1286, "response": "Alpha"}, "78": {"stimulus": 69, "trial": 78, "rt": 2403, "response": "Alpha"}, "51": {"stimulus": 44, "trial": 51, "rt": 855, "response": "Alpha"}, "39": {"stimulus": 0, "trial": 39, "rt": 1063, "response": "Alpha"}, "65": {"stimulus": 23, "trial": 65, "rt": 474, "response": "Alpha"}, "76": {"stimulus": 4, "trial": 76, "rt": 2705, "response": "Alpha"}, "75": {"stimulus": 16, "trial": 75, "rt": 1071, "response": "Alpha"}, "38": {"stimulus": 72, "trial": 38, "rt": 1510, "response": "Alpha"}, "73": {"stimulus": 7, "trial": 73, "rt": 1441, "response": "Alpha"}, "72": {"stimulus": 77, "trial": 72, "rt": 759, "response": "Alpha"}, "71": {"stimulus": 37, "trial": 71, "rt": 9427, "response": "Alpha"}, "70": {"stimulus": 17, "trial": 70, "rt": 1199, "response": "Alpha"}, "59": {"stimulus": 80, "trial": 59, "rt": 697, "response": "Alpha"}, "79": {"stimulus": 20, "trial": 79, "rt": 754, "response": "Beta"}, "58": {"stimulus": 67, "trial": 58, "rt": 558, "response": "Alpha"}, "11": {"stimulus": 38, "trial": 11, "rt": 1112, "response": "Beta"}, "10": {"stimulus": 53, "trial": 10, "rt": 1294, "response": "Alpha"}, "13": {"stimulus": 35, "trial": 13, "rt": 1284, "response": "Alpha"}, "12": {"stimulus": 8, "trial": 12, "rt": 632, "response": "Alpha"}, "15": {"stimulus": 28, "trial": 15, "rt": 1488, "response": "Beta"}, "14": {"stimulus": 71, "trial": 14, "rt": 1656, "response": "Alpha"}, "17": {"stimulus": 19, "trial": 17, "rt": 1451, "response": "Beta"}, "16": {"stimulus": 30, "trial": 16, "rt": 894, "response": "Alpha"}, "19": {"stimulus": 36, "trial": 19, "rt": 1179, "response": "Beta"}, "18": {"stimulus": 46, "trial": 18, "rt": 1260, "response": "Alpha"}, "31": {"stimulus": 74, "trial": 31, "rt": 875, "response": "Alpha"}, "30": {"stimulus": 58, "trial": 30, "rt": 4404, "response": "Alpha"}, "37": {"stimulus": 42, "trial": 37, "rt": 3893, "response": "Alpha"}, "36": {"stimulus": 76, "trial": 36, "rt": 767, "response": "Alpha"}, "35": {"stimulus": 6, "trial": 35, "rt": 8459, "response": "Alpha"}, "34": {"stimulus": 27, "trial": 34, "rt": 995, "response": "Alpha"}, "33": {"stimulus": 78, "trial": 33, "rt": 784, "response": "Alpha"}, "55": {"stimulus": 3, "trial": 55, "rt": 1301, "response": "Alpha"}, "74": {"stimulus": 59, "trial": 74, "rt": 2649, "response": "Alpha"}, "32": {"stimulus": 1, "trial": 32, "rt": 895, "response": "Beta"}, "57": {"stimulus": 33, "trial": 57, "rt": 1289, "response": "Beta"}, "50": {"stimulus": 55, "trial": 50, "rt": 994, "response": "Beta"}}, "experiment": {"Paradigm": "TACL", "Stimuli": "Size-Color Squares and Size-Orientation Circles", "Experiment": "Generating-Multiple-Categories"}, "submit": {"timeTotal": 426264, "age": "30", "comments": "very nice", "sex": "female"}}