{"info": {"finish": 1554530710644, "participant": 93, "exposed": true, "lab": false, "start": 1554529987232, "counterbalance": 0, "stimtype": "Circles", "gentype": 1, "condition": "Corner_C", "browser": {"platform": "Win32", "userAgent": "Mozilla/5.0 (Windows NT 6.1; Win64; x64) AppleWebKit/537.36 (KHTML, like Gecko) Chrome/73.0.3683.86 Safari/537.36"}}, "observation": {"11": {"stimulus": 8, "trial": 11, "rt": 1401}, "10": {"stimulus": 80, "trial": 10, "rt": 1552}, "1": {"stimulus": 0, "trial": 1, "rt": 3291}, "0": {"stimulus": 72, "trial": 0, "rt": 4499}, "3": {"stimulus": 80, "trial": 3, "rt": 2224}, "2": {"stimulus": 8, "trial": 2, "rt": 4282}, "5": {"stimulus": 0, "trial": 5, "rt": 5649}, "4": {"stimulus": 80, "trial": 4, "rt": 4692}, "7": {"stimulus": 72, "trial": 7, "rt": 2043}, "6": {"stimulus": 8, "trial": 6, "rt": 1966}, "9": {"stimulus": 72, "trial": 9, "rt": 1991}, "8": {"stimulus": 0, "trial": 8, "rt": 2316}}, "generation": {"1": {"category": "Beta", "trial": 1, "stimulus": 42, "rt": 10112}, "0": {"category": "Beta", "trial": 0, "stimulus": 40, "rt": 34798}, "3": {"category": "Beta", "trial": 3, "stimulus": 43, "rt": 7375}, "2": {"category": "Beta", "trial": 2, "stimulus": 48, "rt": 7871}}, "generalization": {"56": {"stimulus": 32, "trial": 56, "rt": 795, "response": "Alpha"}, "77": {"stimulus": 49, "trial": 77, "rt": 786, "response": "Beta"}, "54": {"stimulus": 15, "trial": 54, "rt": 829, "response": "Alpha"}, "42": {"stimulus": 50, "trial": 42, "rt": 1341, "response": "Beta"}, "48": {"stimulus": 58, "trial": 48, "rt": 2446, "response": "Beta"}, "43": {"stimulus": 65, "trial": 43, "rt": 688, "response": "Beta"}, "60": {"stimulus": 4, "trial": 60, "rt": 4350, "response": "Alpha"}, "61": {"stimulus": 79, "trial": 61, "rt": 2129, "response": "Alpha"}, "62": {"stimulus": 66, "trial": 62, "rt": 840, "response": "Beta"}, "63": {"stimulus": 53, "trial": 63, "rt": 3464, "response": "Beta"}, "64": {"stimulus": 47, "trial": 64, "rt": 1528, "response": "Beta"}, "49": {"stimulus": 31, "trial": 49, "rt": 7007, "response": "Alpha"}, "66": {"stimulus": 60, "trial": 66, "rt": 1014, "response": "Beta"}, "67": {"stimulus": 56, "trial": 67, "rt": 3500, "response": "Beta"}, "68": {"stimulus": 63, "trial": 68, "rt": 958, "response": "Beta"}, "69": {"stimulus": 71, "trial": 69, "rt": 814, "response": "Beta"}, "80": {"stimulus": 37, "trial": 80, "rt": 1350, "response": "Beta"}, "52": {"stimulus": 0, "trial": 52, "rt": 816, "response": "Alpha"}, "53": {"stimulus": 78, "trial": 53, "rt": 778, "response": "Alpha"}, "24": {"stimulus": 59, "trial": 24, "rt": 4810, "response": "Beta"}, "25": {"stimulus": 67, "trial": 25, "rt": 2680, "response": "Beta"}, "26": {"stimulus": 57, "trial": 26, "rt": 1145, "response": "Beta"}, "27": {"stimulus": 74, "trial": 27, "rt": 1000, "response": "Alpha"}, "20": {"stimulus": 36, "trial": 20, "rt": 1719, "response": "Beta"}, "21": {"stimulus": 29, "trial": 21, "rt": 9915, "response": "Beta"}, "22": {"stimulus": 38, "trial": 22, "rt": 4782, "response": "Beta"}, "23": {"stimulus": 7, "trial": 23, "rt": 1583, "response": "Alpha"}, "46": {"stimulus": 22, "trial": 46, "rt": 2573, "response": "Alpha"}, "47": {"stimulus": 48, "trial": 47, "rt": 10053, "response": "Beta"}, "44": {"stimulus": 25, "trial": 44, "rt": 1332, "response": "Alpha"}, "45": {"stimulus": 80, "trial": 45, "rt": 976, "response": "Alpha"}, "28": {"stimulus": 8, "trial": 28, "rt": 5655, "response": "Alpha"}, "29": {"stimulus": 23, "trial": 29, "rt": 1012, "response": "Alpha"}, "40": {"stimulus": 52, "trial": 40, "rt": 2015, "response": "Beta"}, "41": {"stimulus": 75, "trial": 41, "rt": 934, "response": "Alpha"}, "1": {"stimulus": 64, "trial": 1, "rt": 6575, "response": "Beta"}, "0": {"stimulus": 17, "trial": 0, "rt": 8061, "response": "Alpha"}, "3": {"stimulus": 73, "trial": 3, "rt": 1024, "response": "Alpha"}, "2": {"stimulus": 44, "trial": 2, "rt": 1596, "response": "Beta"}, "5": {"stimulus": 55, "trial": 5, "rt": 1035, "response": "Beta"}, "4": {"stimulus": 69, "trial": 4, "rt": 1239, "response": "Beta"}, "7": {"stimulus": 30, "trial": 7, "rt": 2267, "response": "Alpha"}, "6": {"stimulus": 6, "trial": 6, "rt": 1320, "response": "Alpha"}, "9": {"stimulus": 54, "trial": 9, "rt": 1128, "response": "Beta"}, "8": {"stimulus": 42, "trial": 8, "rt": 6912, "response": "Beta"}, "78": {"stimulus": 27, "trial": 78, "rt": 1486, "response": "Alpha"}, "51": {"stimulus": 41, "trial": 51, "rt": 1168, "response": "Beta"}, "39": {"stimulus": 13, "trial": 39, "rt": 971, "response": "Alpha"}, "65": {"stimulus": 10, "trial": 65, "rt": 793, "response": "Alpha"}, "76": {"stimulus": 35, "trial": 76, "rt": 1058, "response": "Alpha"}, "75": {"stimulus": 16, "trial": 75, "rt": 552, "response": "Alpha"}, "38": {"stimulus": 20, "trial": 38, "rt": 855, "response": "Alpha"}, "73": {"stimulus": 11, "trial": 73, "rt": 655, "response": "Alpha"}, "72": {"stimulus": 3, "trial": 72, "rt": 615, "response": "Alpha"}, "71": {"stimulus": 76, "trial": 71, "rt": 974, "response": "Alpha"}, "70": {"stimulus": 26, "trial": 70, "rt": 1110, "response": "Alpha"}, "59": {"stimulus": 46, "trial": 59, "rt": 1676, "response": "Beta"}, "79": {"stimulus": 68, "trial": 79, "rt": 807, "response": "Beta"}, "58": {"stimulus": 5, "trial": 58, "rt": 747, "response": "Alpha"}, "11": {"stimulus": 34, "trial": 11, "rt": 3070, "response": "Alpha"}, "10": {"stimulus": 70, "trial": 10, "rt": 2848, "response": "Beta"}, "13": {"stimulus": 61, "trial": 13, "rt": 1615, "response": "Beta"}, "12": {"stimulus": 0, "trial": 12, "rt": 3093, "response": "Alpha"}, "15": {"stimulus": 40, "trial": 15, "rt": 1740, "response": "Beta"}, "14": {"stimulus": 51, "trial": 14, "rt": 951, "response": "Beta"}, "17": {"stimulus": 62, "trial": 17, "rt": 1314, "response": "Beta"}, "16": {"stimulus": 33, "trial": 16, "rt": 1784, "response": "Alpha"}, "19": {"stimulus": 9, "trial": 19, "rt": 800, "response": "Alpha"}, "18": {"stimulus": 2, "trial": 18, "rt": 1096, "response": "Alpha"}, "31": {"stimulus": 12, "trial": 31, "rt": 3258, "response": "Alpha"}, "30": {"stimulus": 21, "trial": 30, "rt": 1048, "response": "Alpha"}, "37": {"stimulus": 77, "trial": 37, "rt": 834, "response": "Alpha"}, "36": {"stimulus": 1, "trial": 36, "rt": 1182, "response": "Alpha"}, "35": {"stimulus": 45, "trial": 35, "rt": 1467, "response": "Beta"}, "34": {"stimulus": 72, "trial": 34, "rt": 1831, "response": "Alpha"}, "33": {"stimulus": 43, "trial": 33, "rt": 8375, "response": "Beta"}, "55": {"stimulus": 28, "trial": 55, "rt": 1134, "response": "Alpha"}, "74": {"stimulus": 19, "trial": 74, "rt": 570, "response": "Alpha"}, "32": {"stimulus": 24, "trial": 32, "rt": 5888, "response": "Alpha"}, "57": {"stimulus": 18, "trial": 57, "rt": 724, "response": "Alpha"}, "50": {"stimulus": 14, "trial": 50, "rt": 862, "response": "Alpha"}}, "experiment": {"Paradigm": "TACL", "Stimuli": "Size-Color Squares and Size-Orientation Circles", "Experiment": "Generating-Multiple-Categories"}, "submit": {"timeTotal": 723712, "age": "27", "comments": "It was interesting", "sex": "male"}}