{"info": {"finish": 1554530410573, "participant": 94, "exposed": true, "lab": false, "start": 1554530113140, "counterbalance": 5, "stimtype": "Circles", "gentype": 1, "condition": "Corner_C", "browser": {"platform": "Win32", "userAgent": "Mozilla/5.0 (Windows NT 10.0; Win64; x64) AppleWebKit/537.36 (KHTML, like Gecko) Chrome/73.0.3683.86 Safari/537.36"}}, "observation": {"11": {"stimulus": 0, "trial": 11, "rt": 1698}, "10": {"stimulus": 72, "trial": 10, "rt": 1718}, "1": {"stimulus": 0, "trial": 1, "rt": 9437}, "0": {"stimulus": 80, "trial": 0, "rt": 24791}, "3": {"stimulus": 8, "trial": 3, "rt": 2222}, "2": {"stimulus": 72, "trial": 2, "rt": 1917}, "5": {"stimulus": 80, "trial": 5, "rt": 1554}, "4": {"stimulus": 0, "trial": 4, "rt": 1982}, "7": {"stimulus": 8, "trial": 7, "rt": 2902}, "6": {"stimulus": 72, "trial": 6, "rt": 1853}, "9": {"stimulus": 8, "trial": 9, "rt": 2626}, "8": {"stimulus": 80, "trial": 8, "rt": 1709}}, "generation": {"1": {"category": "Beta", "trial": 1, "stimulus": 4, "rt": 14270}, "0": {"category": "Beta", "trial": 0, "stimulus": 40, "rt": 16469}, "3": {"category": "Beta", "trial": 3, "stimulus": 39, "rt": 8069}, "2": {"category": "Beta", "trial": 2, "stimulus": 76, "rt": 7917}}, "generalization": {"56": {"stimulus": 38, "trial": 56, "rt": 608, "response": "Beta"}, "77": {"stimulus": 70, "trial": 77, "rt": 584, "response": "Beta"}, "54": {"stimulus": 12, "trial": 54, "rt": 501, "response": "Beta"}, "42": {"stimulus": 75, "trial": 42, "rt": 528, "response": "Beta"}, "48": {"stimulus": 73, "trial": 48, "rt": 708, "response": "Beta"}, "43": {"stimulus": 3, "trial": 43, "rt": 510, "response": "Beta"}, "60": {"stimulus": 22, "trial": 60, "rt": 550, "response": "Beta"}, "61": {"stimulus": 52, "trial": 61, "rt": 1012, "response": "Beta"}, "62": {"stimulus": 60, "trial": 62, "rt": 567, "response": "Beta"}, "63": {"stimulus": 34, "trial": 63, "rt": 770, "response": "Beta"}, "64": {"stimulus": 15, "trial": 64, "rt": 551, "response": "Beta"}, "49": {"stimulus": 71, "trial": 49, "rt": 1038, "response": "Alpha"}, "66": {"stimulus": 26, "trial": 66, "rt": 959, "response": "Alpha"}, "67": {"stimulus": 54, "trial": 67, "rt": 627, "response": "Alpha"}, "68": {"stimulus": 74, "trial": 68, "rt": 791, "response": "Beta"}, "69": {"stimulus": 10, "trial": 69, "rt": 641, "response": "Beta"}, "80": {"stimulus": 33, "trial": 80, "rt": 608, "response": "Beta"}, "52": {"stimulus": 53, "trial": 52, "rt": 1024, "response": "Alpha"}, "53": {"stimulus": 77, "trial": 53, "rt": 855, "response": "Beta"}, "24": {"stimulus": 4, "trial": 24, "rt": 954, "response": "Beta"}, "25": {"stimulus": 69, "trial": 25, "rt": 813, "response": "Beta"}, "26": {"stimulus": 72, "trial": 26, "rt": 1143, "response": "Alpha"}, "27": {"stimulus": 7, "trial": 27, "rt": 1166, "response": "Beta"}, "20": {"stimulus": 43, "trial": 20, "rt": 962, "response": "Beta"}, "21": {"stimulus": 65, "trial": 21, "rt": 709, "response": "Beta"}, "22": {"stimulus": 68, "trial": 22, "rt": 879, "response": "Beta"}, "23": {"stimulus": 63, "trial": 23, "rt": 971, "response": "Alpha"}, "46": {"stimulus": 58, "trial": 46, "rt": 465, "response": "Beta"}, "47": {"stimulus": 61, "trial": 47, "rt": 630, "response": "Beta"}, "44": {"stimulus": 55, "trial": 44, "rt": 1071, "response": "Beta"}, "45": {"stimulus": 30, "trial": 45, "rt": 533, "response": "Beta"}, "28": {"stimulus": 48, "trial": 28, "rt": 547, "response": "Beta"}, "29": {"stimulus": 62, "trial": 29, "rt": 981, "response": "Alpha"}, "40": {"stimulus": 46, "trial": 40, "rt": 630, "response": "Beta"}, "41": {"stimulus": 1, "trial": 41, "rt": 502, "response": "Beta"}, "1": {"stimulus": 16, "trial": 1, "rt": 2763, "response": "Beta"}, "0": {"stimulus": 67, "trial": 0, "rt": 2213, "response": "Beta"}, "3": {"stimulus": 21, "trial": 3, "rt": 981, "response": "Beta"}, "2": {"stimulus": 18, "trial": 2, "rt": 1032, "response": "Alpha"}, "5": {"stimulus": 29, "trial": 5, "rt": 789, "response": "Beta"}, "4": {"stimulus": 20, "trial": 4, "rt": 1121, "response": "Beta"}, "7": {"stimulus": 13, "trial": 7, "rt": 936, "response": "Beta"}, "6": {"stimulus": 17, "trial": 6, "rt": 961, "response": "Alpha"}, "9": {"stimulus": 79, "trial": 9, "rt": 1228, "response": "Beta"}, "8": {"stimulus": 47, "trial": 8, "rt": 751, "response": "Beta"}, "78": {"stimulus": 25, "trial": 78, "rt": 608, "response": "Beta"}, "51": {"stimulus": 57, "trial": 51, "rt": 753, "response": "Beta"}, "39": {"stimulus": 2, "trial": 39, "rt": 829, "response": "Beta"}, "65": {"stimulus": 78, "trial": 65, "rt": 524, "response": "Beta"}, "76": {"stimulus": 64, "trial": 76, "rt": 598, "response": "Beta"}, "75": {"stimulus": 24, "trial": 75, "rt": 578, "response": "Beta"}, "38": {"stimulus": 42, "trial": 38, "rt": 656, "response": "Beta"}, "73": {"stimulus": 76, "trial": 73, "rt": 915, "response": "Beta"}, "72": {"stimulus": 9, "trial": 72, "rt": 572, "response": "Alpha"}, "71": {"stimulus": 44, "trial": 71, "rt": 507, "response": "Alpha"}, "70": {"stimulus": 80, "trial": 70, "rt": 1028, "response": "Alpha"}, "59": {"stimulus": 41, "trial": 59, "rt": 676, "response": "Beta"}, "79": {"stimulus": 11, "trial": 79, "rt": 546, "response": "Beta"}, "58": {"stimulus": 31, "trial": 58, "rt": 566, "response": "Beta"}, "11": {"stimulus": 36, "trial": 11, "rt": 999, "response": "Alpha"}, "10": {"stimulus": 49, "trial": 10, "rt": 909, "response": "Beta"}, "13": {"stimulus": 5, "trial": 13, "rt": 963, "response": "Beta"}, "12": {"stimulus": 27, "trial": 12, "rt": 647, "response": "Alpha"}, "15": {"stimulus": 59, "trial": 15, "rt": 896, "response": "Beta"}, "14": {"stimulus": 23, "trial": 14, "rt": 706, "response": "Beta"}, "17": {"stimulus": 0, "trial": 17, "rt": 1186, "response": "Alpha"}, "16": {"stimulus": 6, "trial": 16, "rt": 735, "response": "Beta"}, "19": {"stimulus": 40, "trial": 19, "rt": 773, "response": "Beta"}, "18": {"stimulus": 28, "trial": 18, "rt": 934, "response": "Beta"}, "31": {"stimulus": 50, "trial": 31, "rt": 689, "response": "Beta"}, "30": {"stimulus": 56, "trial": 30, "rt": 830, "response": "Beta"}, "37": {"stimulus": 66, "trial": 37, "rt": 582, "response": "Beta"}, "36": {"stimulus": 51, "trial": 36, "rt": 775, "response": "Beta"}, "35": {"stimulus": 32, "trial": 35, "rt": 780, "response": "Beta"}, "34": {"stimulus": 35, "trial": 34, "rt": 630, "response": "Alpha"}, "33": {"stimulus": 8, "trial": 33, "rt": 869, "response": "Alpha"}, "55": {"stimulus": 14, "trial": 55, "rt": 527, "response": "Beta"}, "74": {"stimulus": 37, "trial": 74, "rt": 555, "response": "Beta"}, "32": {"stimulus": 45, "trial": 32, "rt": 936, "response": "Alpha"}, "57": {"stimulus": 19, "trial": 57, "rt": 692, "response": "Beta"}, "50": {"stimulus": 0, "trial": 50, "rt": 569, "response": "Alpha"}}, "experiment": {"Paradigm": "TACL", "Stimuli": "Size-Color Squares and Size-Orientation Circles", "Experiment": "Generating-Multiple-Categories"}, "submit": {"timeTotal": 297746, "age": "48", "comments": "It was fine, no problems.", "sex": "male"}}