{"info": {"finish": 1554530479776, "participant": 95, "exposed": true, "lab": false, "start": 1554530155737, "counterbalance": 5, "stimtype": "Circles", "gentype": 1, "condition": "Corner_C", "browser": {"platform": "Win32", "userAgent": "Mozilla/5.0 (Windows NT 10.0) AppleWebKit/537.36 (KHTML, like Gecko) Chrome/73.0.3683.86 Safari/537.36"}}, "observation": {"11": {"stimulus": 0, "trial": 11, "rt": 1822}, "10": {"stimulus": 80, "trial": 10, "rt": 1853}, "1": {"stimulus": 80, "trial": 1, "rt": 3269}, "0": {"stimulus": 8, "trial": 0, "rt": 3938}, "3": {"stimulus": 72, "trial": 3, "rt": 3509}, "2": {"stimulus": 0, "trial": 2, "rt": 3444}, "5": {"stimulus": 80, "trial": 5, "rt": 1652}, "4": {"stimulus": 8, "trial": 4, "rt": 2055}, "7": {"stimulus": 72, "trial": 7, "rt": 1660}, "6": {"stimulus": 0, "trial": 6, "rt": 1997}, "9": {"stimulus": 72, "trial": 9, "rt": 1732}, "8": {"stimulus": 8, "trial": 8, "rt": 1550}}, "generation": {"1": {"category": "Beta", "trial": 1, "stimulus": 57, "rt": 10167}, "0": {"category": "Beta", "trial": 0, "stimulus": 56, "rt": 7291}, "3": {"category": "Beta", "trial": 3, "stimulus": 31, "rt": 6003}, "2": {"category": "Beta", "trial": 2, "stimulus": 39, "rt": 5995}}, "generalization": {"56": {"stimulus": 60, "trial": 56, "rt": 843, "response": "Alpha"}, "77": {"stimulus": 43, "trial": 77, "rt": 1227, "response": "Alpha"}, "54": {"stimulus": 29, "trial": 54, "rt": 1108, "response": "Beta"}, "42": {"stimulus": 46, "trial": 42, "rt": 741, "response": "Beta"}, "48": {"stimulus": 12, "trial": 48, "rt": 920, "response": "Beta"}, "43": {"stimulus": 45, "trial": 43, "rt": 1271, "response": "Alpha"}, "60": {"stimulus": 35, "trial": 60, "rt": 749, "response": "Alpha"}, "61": {"stimulus": 70, "trial": 61, "rt": 1128, "response": "Alpha"}, "62": {"stimulus": 0, "trial": 62, "rt": 796, "response": "Alpha"}, "63": {"stimulus": 41, "trial": 63, "rt": 1997, "response": "Alpha"}, "64": {"stimulus": 13, "trial": 64, "rt": 763, "response": "Beta"}, "49": {"stimulus": 15, "trial": 49, "rt": 832, "response": "Alpha"}, "66": {"stimulus": 57, "trial": 66, "rt": 3460, "response": "Beta"}, "67": {"stimulus": 26, "trial": 67, "rt": 907, "response": "Alpha"}, "68": {"stimulus": 27, "trial": 68, "rt": 799, "response": "Alpha"}, "69": {"stimulus": 56, "trial": 69, "rt": 1010, "response": "Beta"}, "80": {"stimulus": 32, "trial": 80, "rt": 1329, "response": "Alpha"}, "52": {"stimulus": 24, "trial": 52, "rt": 947, "response": "Alpha"}, "53": {"stimulus": 7, "trial": 53, "rt": 831, "response": "Alpha"}, "24": {"stimulus": 40, "trial": 24, "rt": 17423, "response": "Beta"}, "25": {"stimulus": 44, "trial": 25, "rt": 907, "response": "Alpha"}, "26": {"stimulus": 16, "trial": 26, "rt": 954, "response": "Alpha"}, "27": {"stimulus": 9, "trial": 27, "rt": 1077, "response": "Alpha"}, "20": {"stimulus": 64, "trial": 20, "rt": 1036, "response": "Beta"}, "21": {"stimulus": 62, "trial": 21, "rt": 1669, "response": "Alpha"}, "22": {"stimulus": 55, "trial": 22, "rt": 1681, "response": "Beta"}, "23": {"stimulus": 76, "trial": 23, "rt": 3492, "response": "Beta"}, "46": {"stimulus": 69, "trial": 46, "rt": 779, "response": "Alpha"}, "47": {"stimulus": 36, "trial": 47, "rt": 777, "response": "Alpha"}, "44": {"stimulus": 14, "trial": 44, "rt": 1212, "response": "Beta"}, "45": {"stimulus": 49, "trial": 45, "rt": 923, "response": "Beta"}, "28": {"stimulus": 38, "trial": 28, "rt": 2482, "response": "Beta"}, "29": {"stimulus": 53, "trial": 29, "rt": 1322, "response": "Alpha"}, "40": {"stimulus": 48, "trial": 40, "rt": 1538, "response": "Beta"}, "41": {"stimulus": 3, "trial": 41, "rt": 916, "response": "Beta"}, "1": {"stimulus": 37, "trial": 1, "rt": 2017, "response": "Beta"}, "0": {"stimulus": 5, "trial": 0, "rt": 4091, "response": "Beta"}, "3": {"stimulus": 67, "trial": 3, "rt": 899, "response": "Beta"}, "2": {"stimulus": 20, "trial": 2, "rt": 1064, "response": "Beta"}, "5": {"stimulus": 47, "trial": 5, "rt": 2390, "response": "Beta"}, "4": {"stimulus": 31, "trial": 4, "rt": 619, "response": "Beta"}, "7": {"stimulus": 78, "trial": 7, "rt": 2469, "response": "Alpha"}, "6": {"stimulus": 1, "trial": 6, "rt": 690, "response": "Beta"}, "9": {"stimulus": 23, "trial": 9, "rt": 803, "response": "Alpha"}, "8": {"stimulus": 68, "trial": 8, "rt": 2690, "response": "Alpha"}, "78": {"stimulus": 77, "trial": 78, "rt": 1407, "response": "Alpha"}, "51": {"stimulus": 30, "trial": 51, "rt": 855, "response": "Beta"}, "39": {"stimulus": 79, "trial": 39, "rt": 748, "response": "Alpha"}, "65": {"stimulus": 0, "trial": 65, "rt": 933, "response": "Alpha"}, "76": {"stimulus": 21, "trial": 76, "rt": 1153, "response": "Beta"}, "75": {"stimulus": 65, "trial": 75, "rt": 1590, "response": "Beta"}, "38": {"stimulus": 80, "trial": 38, "rt": 717, "response": "Alpha"}, "73": {"stimulus": 66, "trial": 73, "rt": 2465, "response": "Beta"}, "72": {"stimulus": 6, "trial": 72, "rt": 2512, "response": "Alpha"}, "71": {"stimulus": 50, "trial": 71, "rt": 1102, "response": "Alpha"}, "70": {"stimulus": 2, "trial": 70, "rt": 1739, "response": "Beta"}, "59": {"stimulus": 22, "trial": 59, "rt": 1294, "response": "Beta"}, "79": {"stimulus": 11, "trial": 79, "rt": 2643, "response": "Beta"}, "58": {"stimulus": 10, "trial": 58, "rt": 1428, "response": "Beta"}, "11": {"stimulus": 63, "trial": 11, "rt": 1354, "response": "Alpha"}, "10": {"stimulus": 19, "trial": 10, "rt": 954, "response": "Beta"}, "13": {"stimulus": 61, "trial": 13, "rt": 932, "response": "Alpha"}, "12": {"stimulus": 58, "trial": 12, "rt": 1334, "response": "Beta"}, "15": {"stimulus": 73, "trial": 15, "rt": 1422, "response": "Beta"}, "14": {"stimulus": 28, "trial": 14, "rt": 975, "response": "Beta"}, "17": {"stimulus": 54, "trial": 17, "rt": 621, "response": "Beta"}, "16": {"stimulus": 75, "trial": 16, "rt": 858, "response": "Beta"}, "19": {"stimulus": 72, "trial": 19, "rt": 1773, "response": "Alpha"}, "18": {"stimulus": 25, "trial": 18, "rt": 1333, "response": "Alpha"}, "31": {"stimulus": 34, "trial": 31, "rt": 1538, "response": "Alpha"}, "30": {"stimulus": 74, "trial": 30, "rt": 1213, "response": "Beta"}, "37": {"stimulus": 17, "trial": 37, "rt": 636, "response": "Alpha"}, "36": {"stimulus": 18, "trial": 36, "rt": 1940, "response": "Alpha"}, "35": {"stimulus": 4, "trial": 35, "rt": 1020, "response": "Beta"}, "34": {"stimulus": 8, "trial": 34, "rt": 733, "response": "Alpha"}, "33": {"stimulus": 59, "trial": 33, "rt": 1273, "response": "Alpha"}, "55": {"stimulus": 52, "trial": 55, "rt": 951, "response": "Alpha"}, "74": {"stimulus": 71, "trial": 74, "rt": 1292, "response": "Alpha"}, "32": {"stimulus": 42, "trial": 32, "rt": 1424, "response": "Alpha"}, "57": {"stimulus": 51, "trial": 57, "rt": 555, "response": "Alpha"}, "50": {"stimulus": 33, "trial": 50, "rt": 884, "response": "Alpha"}}, "experiment": {"Paradigm": "TACL", "Stimuli": "Size-Color Squares and Size-Orientation Circles", "Experiment": "Generating-Multiple-Categories"}, "submit": {"timeTotal": 325817, "age": "28", "comments": "good", "sex": "male"}}