{"info": {"finish": 1554530625002, "participant": 97, "exposed": true, "lab": false, "start": 1554530303799, "counterbalance": 4, "stimtype": "Squares", "gentype": 1, "condition": "Corner_S", "browser": {"platform": "Win32", "userAgent": "Mozilla/5.0 (Windows NT 10.0; Win64; x64) AppleWebKit/537.36 (KHTML, like Gecko) Chrome/73.0.3683.86 Safari/537.36"}}, "observation": {"11": {"stimulus": 8, "trial": 11, "rt": 1482}, "10": {"stimulus": 80, "trial": 10, "rt": 1795}, "1": {"stimulus": 8, "trial": 1, "rt": 2240}, "0": {"stimulus": 0, "trial": 0, "rt": 2710}, "3": {"stimulus": 80, "trial": 3, "rt": 2513}, "2": {"stimulus": 72, "trial": 2, "rt": 1822}, "5": {"stimulus": 80, "trial": 5, "rt": 1537}, "4": {"stimulus": 8, "trial": 4, "rt": 2158}, "7": {"stimulus": 72, "trial": 7, "rt": 1574}, "6": {"stimulus": 0, "trial": 6, "rt": 1562}, "9": {"stimulus": 72, "trial": 9, "rt": 1495}, "8": {"stimulus": 0, "trial": 8, "rt": 1569}}, "generation": {"1": {"category": "Beta", "trial": 1, "stimulus": 56, "rt": 14828}, "0": {"category": "Beta", "trial": 0, "stimulus": 22, "rt": 20898}, "3": {"category": "Beta", "trial": 3, "stimulus": 40, "rt": 4471}, "2": {"category": "Beta", "trial": 2, "stimulus": 34, "rt": 8605}}, "generalization": {"56": {"stimulus": 15, "trial": 56, "rt": 541, "response": "Alpha"}, "77": {"stimulus": 65, "trial": 77, "rt": 581, "response": "Alpha"}, "54": {"stimulus": 33, "trial": 54, "rt": 356, "response": "Alpha"}, "42": {"stimulus": 17, "trial": 42, "rt": 291, "response": "Beta"}, "48": {"stimulus": 62, "trial": 48, "rt": 2683, "response": "Alpha"}, "43": {"stimulus": 34, "trial": 43, "rt": 391, "response": "Alpha"}, "60": {"stimulus": 45, "trial": 60, "rt": 537, "response": "Alpha"}, "61": {"stimulus": 27, "trial": 61, "rt": 458, "response": "Beta"}, "62": {"stimulus": 75, "trial": 62, "rt": 1443, "response": "Alpha"}, "63": {"stimulus": 5, "trial": 63, "rt": 816, "response": "Alpha"}, "64": {"stimulus": 32, "trial": 64, "rt": 1005, "response": "Beta"}, "49": {"stimulus": 0, "trial": 49, "rt": 1252, "response": "Alpha"}, "66": {"stimulus": 9, "trial": 66, "rt": 644, "response": "Beta"}, "67": {"stimulus": 24, "trial": 67, "rt": 463, "response": "Alpha"}, "68": {"stimulus": 49, "trial": 68, "rt": 560, "response": "Alpha"}, "69": {"stimulus": 70, "trial": 69, "rt": 515, "response": "Beta"}, "80": {"stimulus": 74, "trial": 80, "rt": 382, "response": "Beta"}, "52": {"stimulus": 13, "trial": 52, "rt": 298, "response": "Beta"}, "53": {"stimulus": 30, "trial": 53, "rt": 538, "response": "Alpha"}, "24": {"stimulus": 12, "trial": 24, "rt": 398, "response": "Alpha"}, "25": {"stimulus": 14, "trial": 25, "rt": 371, "response": "Alpha"}, "26": {"stimulus": 29, "trial": 26, "rt": 420, "response": "Beta"}, "27": {"stimulus": 0, "trial": 27, "rt": 291, "response": "Beta"}, "20": {"stimulus": 4, "trial": 20, "rt": 421, "response": "Alpha"}, "21": {"stimulus": 77, "trial": 21, "rt": 613, "response": "Alpha"}, "22": {"stimulus": 11, "trial": 22, "rt": 401, "response": "Alpha"}, "23": {"stimulus": 21, "trial": 23, "rt": 435, "response": "Alpha"}, "46": {"stimulus": 42, "trial": 46, "rt": 534, "response": "Beta"}, "47": {"stimulus": 55, "trial": 47, "rt": 379, "response": "Beta"}, "44": {"stimulus": 68, "trial": 44, "rt": 806, "response": "Alpha"}, "45": {"stimulus": 72, "trial": 45, "rt": 226, "response": "Alpha"}, "28": {"stimulus": 36, "trial": 28, "rt": 401, "response": "Beta"}, "29": {"stimulus": 59, "trial": 29, "rt": 1159, "response": "Alpha"}, "40": {"stimulus": 51, "trial": 40, "rt": 198, "response": "Alpha"}, "41": {"stimulus": 80, "trial": 41, "rt": 419, "response": "Alpha"}, "1": {"stimulus": 3, "trial": 1, "rt": 2905, "response": "Beta"}, "0": {"stimulus": 22, "trial": 0, "rt": 3544, "response": "Alpha"}, "3": {"stimulus": 79, "trial": 3, "rt": 1174, "response": "Alpha"}, "2": {"stimulus": 56, "trial": 2, "rt": 745, "response": "Alpha"}, "5": {"stimulus": 71, "trial": 5, "rt": 982, "response": "Alpha"}, "4": {"stimulus": 26, "trial": 4, "rt": 686, "response": "Alpha"}, "7": {"stimulus": 25, "trial": 7, "rt": 417, "response": "Alpha"}, "6": {"stimulus": 37, "trial": 6, "rt": 1004, "response": "Beta"}, "9": {"stimulus": 1, "trial": 9, "rt": 624, "response": "Alpha"}, "8": {"stimulus": 18, "trial": 8, "rt": 1553, "response": "Alpha"}, "78": {"stimulus": 76, "trial": 78, "rt": 394, "response": "Beta"}, "51": {"stimulus": 61, "trial": 51, "rt": 1179, "response": "Alpha"}, "39": {"stimulus": 57, "trial": 39, "rt": 385, "response": "Alpha"}, "65": {"stimulus": 10, "trial": 65, "rt": 1575, "response": "Alpha"}, "76": {"stimulus": 63, "trial": 76, "rt": 829, "response": "Alpha"}, "75": {"stimulus": 40, "trial": 75, "rt": 844, "response": "Beta"}, "38": {"stimulus": 50, "trial": 38, "rt": 397, "response": "Alpha"}, "73": {"stimulus": 44, "trial": 73, "rt": 951, "response": "Alpha"}, "72": {"stimulus": 20, "trial": 72, "rt": 1310, "response": "Beta"}, "71": {"stimulus": 35, "trial": 71, "rt": 460, "response": "Alpha"}, "70": {"stimulus": 16, "trial": 70, "rt": 418, "response": "Alpha"}, "59": {"stimulus": 6, "trial": 59, "rt": 468, "response": "Alpha"}, "79": {"stimulus": 60, "trial": 79, "rt": 444, "response": "Beta"}, "58": {"stimulus": 23, "trial": 58, "rt": 432, "response": "Alpha"}, "11": {"stimulus": 78, "trial": 11, "rt": 497, "response": "Alpha"}, "10": {"stimulus": 28, "trial": 10, "rt": 1229, "response": "Beta"}, "13": {"stimulus": 54, "trial": 13, "rt": 691, "response": "Alpha"}, "12": {"stimulus": 47, "trial": 12, "rt": 693, "response": "Alpha"}, "15": {"stimulus": 48, "trial": 15, "rt": 512, "response": "Alpha"}, "14": {"stimulus": 38, "trial": 14, "rt": 1408, "response": "Beta"}, "17": {"stimulus": 19, "trial": 17, "rt": 435, "response": "Alpha"}, "16": {"stimulus": 53, "trial": 16, "rt": 450, "response": "Alpha"}, "19": {"stimulus": 2, "trial": 19, "rt": 408, "response": "Alpha"}, "18": {"stimulus": 66, "trial": 18, "rt": 2401, "response": "Beta"}, "31": {"stimulus": 46, "trial": 31, "rt": 391, "response": "Alpha"}, "30": {"stimulus": 69, "trial": 30, "rt": 355, "response": "Alpha"}, "37": {"stimulus": 8, "trial": 37, "rt": 414, "response": "Alpha"}, "36": {"stimulus": 73, "trial": 36, "rt": 335, "response": "Beta"}, "35": {"stimulus": 41, "trial": 35, "rt": 386, "response": "Beta"}, "34": {"stimulus": 43, "trial": 34, "rt": 396, "response": "Alpha"}, "33": {"stimulus": 31, "trial": 33, "rt": 653, "response": "Beta"}, "55": {"stimulus": 7, "trial": 55, "rt": 403, "response": "Alpha"}, "74": {"stimulus": 67, "trial": 74, "rt": 885, "response": "Alpha"}, "32": {"stimulus": 52, "trial": 32, "rt": 389, "response": "Alpha"}, "57": {"stimulus": 58, "trial": 57, "rt": 298, "response": "Alpha"}, "50": {"stimulus": 64, "trial": 50, "rt": 635, "response": "Beta"}}, "experiment": {"Paradigm": "TACL", "Stimuli": "Size-Color Squares and Size-Orientation Circles", "Experiment": "Generating-Multiple-Categories"}, "submit": {"timeTotal": 321517, "age": "32", "comments": "it was easy to understand thank you", "sex": "female"}}