{"info": {"finish": 1554531170940, "participant": 98, "exposed": true, "lab": false, "start": 1554530600358, "counterbalance": 3, "stimtype": "Squares", "gentype": 1, "condition": "Corner_S", "browser": {"platform": "Win32", "userAgent": "Mozilla/5.0 (Windows NT 10.0; Win64; x64) AppleWebKit/537.36 (KHTML, like Gecko) Chrome/73.0.3683.86 Safari/537.36"}}, "observation": {"11": {"stimulus": 72, "trial": 11, "rt": 2037}, "10": {"stimulus": 8, "trial": 10, "rt": 2621}, "1": {"stimulus": 0, "trial": 1, "rt": 5023}, "0": {"stimulus": 72, "trial": 0, "rt": 6944}, "3": {"stimulus": 8, "trial": 3, "rt": 5095}, "2": {"stimulus": 80, "trial": 2, "rt": 4925}, "5": {"stimulus": 80, "trial": 5, "rt": 3479}, "4": {"stimulus": 8, "trial": 4, "rt": 3391}, "7": {"stimulus": 72, "trial": 7, "rt": 2158}, "6": {"stimulus": 0, "trial": 6, "rt": 3047}, "9": {"stimulus": 0, "trial": 9, "rt": 2239}, "8": {"stimulus": 80, "trial": 8, "rt": 71438}}, "generation": {"1": {"category": "Beta", "trial": 1, "stimulus": 43, "rt": 10821}, "0": {"category": "Beta", "trial": 0, "stimulus": 38, "rt": 7390}, "3": {"category": "Beta", "trial": 3, "stimulus": 13, "rt": 6998}, "2": {"category": "Beta", "trial": 2, "stimulus": 36, "rt": 9108}}, "generalization": {"56": {"stimulus": 0, "trial": 56, "rt": 1171, "response": "Beta"}, "77": {"stimulus": 51, "trial": 77, "rt": 583, "response": "Beta"}, "54": {"stimulus": 50, "trial": 54, "rt": 558, "response": "Alpha"}, "42": {"stimulus": 58, "trial": 42, "rt": 621, "response": "Alpha"}, "48": {"stimulus": 14, "trial": 48, "rt": 1006, "response": "Beta"}, "43": {"stimulus": 80, "trial": 43, "rt": 565, "response": "Alpha"}, "60": {"stimulus": 72, "trial": 60, "rt": 1247, "response": "Alpha"}, "61": {"stimulus": 44, "trial": 61, "rt": 1111, "response": "Beta"}, "62": {"stimulus": 27, "trial": 62, "rt": 1149, "response": "Beta"}, "63": {"stimulus": 6, "trial": 63, "rt": 863, "response": "Beta"}, "64": {"stimulus": 15, "trial": 64, "rt": 669, "response": "Beta"}, "49": {"stimulus": 24, "trial": 49, "rt": 613, "response": "Beta"}, "66": {"stimulus": 46, "trial": 66, "rt": 668, "response": "Alpha"}, "67": {"stimulus": 56, "trial": 67, "rt": 1006, "response": "Alpha"}, "68": {"stimulus": 62, "trial": 68, "rt": 990, "response": "Alpha"}, "69": {"stimulus": 63, "trial": 69, "rt": 6383, "response": "Alpha"}, "80": {"stimulus": 30, "trial": 80, "rt": 653, "response": "Alpha"}, "52": {"stimulus": 57, "trial": 52, "rt": 494, "response": "Alpha"}, "53": {"stimulus": 75, "trial": 53, "rt": 622, "response": "Alpha"}, "24": {"stimulus": 26, "trial": 24, "rt": 1918, "response": "Alpha"}, "25": {"stimulus": 59, "trial": 25, "rt": 1190, "response": "Beta"}, "26": {"stimulus": 28, "trial": 26, "rt": 1190, "response": "Beta"}, "27": {"stimulus": 66, "trial": 27, "rt": 1278, "response": "Alpha"}, "20": {"stimulus": 35, "trial": 20, "rt": 675, "response": "Beta"}, "21": {"stimulus": 69, "trial": 21, "rt": 1238, "response": "Alpha"}, "22": {"stimulus": 1, "trial": 22, "rt": 1139, "response": "Beta"}, "23": {"stimulus": 43, "trial": 23, "rt": 3247, "response": "Beta"}, "46": {"stimulus": 11, "trial": 46, "rt": 1175, "response": "Beta"}, "47": {"stimulus": 3, "trial": 47, "rt": 733, "response": "Beta"}, "44": {"stimulus": 2, "trial": 44, "rt": 1725, "response": "Beta"}, "45": {"stimulus": 16, "trial": 45, "rt": 1798, "response": "Beta"}, "28": {"stimulus": 60, "trial": 28, "rt": 869, "response": "Alpha"}, "29": {"stimulus": 48, "trial": 29, "rt": 814, "response": "Alpha"}, "40": {"stimulus": 34, "trial": 40, "rt": 646, "response": "Beta"}, "41": {"stimulus": 67, "trial": 41, "rt": 1359, "response": "Alpha"}, "1": {"stimulus": 4, "trial": 1, "rt": 3237, "response": "Beta"}, "0": {"stimulus": 65, "trial": 0, "rt": 3140, "response": "Alpha"}, "3": {"stimulus": 76, "trial": 3, "rt": 1366, "response": "Alpha"}, "2": {"stimulus": 70, "trial": 2, "rt": 1342, "response": "Alpha"}, "5": {"stimulus": 68, "trial": 5, "rt": 1663, "response": "Alpha"}, "4": {"stimulus": 38, "trial": 4, "rt": 1542, "response": "Beta"}, "7": {"stimulus": 33, "trial": 7, "rt": 1030, "response": "Alpha"}, "6": {"stimulus": 37, "trial": 6, "rt": 1462, "response": "Beta"}, "9": {"stimulus": 7, "trial": 9, "rt": 1181, "response": "Beta"}, "8": {"stimulus": 64, "trial": 8, "rt": 1038, "response": "Alpha"}, "78": {"stimulus": 74, "trial": 78, "rt": 1157, "response": "Alpha"}, "51": {"stimulus": 71, "trial": 51, "rt": 670, "response": "Alpha"}, "39": {"stimulus": 40, "trial": 39, "rt": 670, "response": "Beta"}, "65": {"stimulus": 53, "trial": 65, "rt": 1599, "response": "Alpha"}, "76": {"stimulus": 45, "trial": 76, "rt": 716, "response": "Alpha"}, "75": {"stimulus": 10, "trial": 75, "rt": 1133, "response": "Beta"}, "38": {"stimulus": 20, "trial": 38, "rt": 541, "response": "Beta"}, "73": {"stimulus": 42, "trial": 73, "rt": 797, "response": "Beta"}, "72": {"stimulus": 13, "trial": 72, "rt": 1038, "response": "Alpha"}, "71": {"stimulus": 31, "trial": 71, "rt": 1966, "response": "Beta"}, "70": {"stimulus": 73, "trial": 70, "rt": 1519, "response": "Alpha"}, "59": {"stimulus": 17, "trial": 59, "rt": 1446, "response": "Beta"}, "79": {"stimulus": 47, "trial": 79, "rt": 733, "response": "Alpha"}, "58": {"stimulus": 41, "trial": 58, "rt": 1894, "response": "Beta"}, "11": {"stimulus": 23, "trial": 11, "rt": 1749, "response": "Beta"}, "10": {"stimulus": 52, "trial": 10, "rt": 989, "response": "Alpha"}, "13": {"stimulus": 78, "trial": 13, "rt": 612, "response": "Beta"}, "12": {"stimulus": 21, "trial": 12, "rt": 911, "response": "Alpha"}, "15": {"stimulus": 36, "trial": 15, "rt": 582, "response": "Alpha"}, "14": {"stimulus": 29, "trial": 14, "rt": 709, "response": "Alpha"}, "17": {"stimulus": 79, "trial": 17, "rt": 1230, "response": "Alpha"}, "16": {"stimulus": 5, "trial": 16, "rt": 1111, "response": "Beta"}, "19": {"stimulus": 9, "trial": 19, "rt": 1351, "response": "Beta"}, "18": {"stimulus": 61, "trial": 18, "rt": 1100, "response": "Beta"}, "31": {"stimulus": 49, "trial": 31, "rt": 1213, "response": "Alpha"}, "30": {"stimulus": 32, "trial": 30, "rt": 1975, "response": "Beta"}, "37": {"stimulus": 12, "trial": 37, "rt": 1431, "response": "Beta"}, "36": {"stimulus": 54, "trial": 36, "rt": 2046, "response": "Alpha"}, "35": {"stimulus": 25, "trial": 35, "rt": 727, "response": "Beta"}, "34": {"stimulus": 22, "trial": 34, "rt": 711, "response": "Beta"}, "33": {"stimulus": 8, "trial": 33, "rt": 639, "response": "Beta"}, "55": {"stimulus": 18, "trial": 55, "rt": 824, "response": "Beta"}, "74": {"stimulus": 77, "trial": 74, "rt": 1173, "response": "Alpha"}, "32": {"stimulus": 19, "trial": 32, "rt": 1053, "response": "Beta"}, "57": {"stimulus": 0, "trial": 57, "rt": 607, "response": "Beta"}, "50": {"stimulus": 55, "trial": 50, "rt": 1151, "response": "Alpha"}}, "experiment": {"Paradigm": "TACL", "Stimuli": "Size-Color Squares and Size-Orientation Circles", "Experiment": "Generating-Multiple-Categories"}, "submit": {"timeTotal": 571974, "age": "28", "comments": "good", "sex": "male"}}