{"info": {"finish": 1554531682341, "participant": 99, "exposed": true, "lab": false, "start": 1554531334469, "counterbalance": 1, "stimtype": "Squares", "gentype": 1, "condition": "Corner_S", "browser": {"platform": "Win32", "userAgent": "Mozilla/5.0 (Windows NT 10.0; Win64; x64) AppleWebKit/537.36 (KHTML, like Gecko) Chrome/73.0.3683.103 Safari/537.36"}}, "observation": {"11": {"stimulus": 8, "trial": 11, "rt": 1489}, "10": {"stimulus": 80, "trial": 10, "rt": 1562}, "1": {"stimulus": 72, "trial": 1, "rt": 1846}, "0": {"stimulus": 80, "trial": 0, "rt": 5095}, "3": {"stimulus": 8, "trial": 3, "rt": 1682}, "2": {"stimulus": 0, "trial": 2, "rt": 2484}, "5": {"stimulus": 80, "trial": 5, "rt": 1999}, "4": {"stimulus": 72, "trial": 4, "rt": 1682}, "7": {"stimulus": 8, "trial": 7, "rt": 8000}, "6": {"stimulus": 0, "trial": 6, "rt": 1639}, "9": {"stimulus": 72, "trial": 9, "rt": 1730}, "8": {"stimulus": 0, "trial": 8, "rt": 7712}}, "generation": {"1": {"category": "Beta", "trial": 1, "stimulus": 16, "rt": 15037}, "0": {"category": "Beta", "trial": 0, "stimulus": 67, "rt": 45234}, "3": {"category": "Beta", "trial": 3, "stimulus": 19, "rt": 10053}, "2": {"category": "Beta", "trial": 2, "stimulus": 64, "rt": 14043}}, "generalization": {"56": {"stimulus": 67, "trial": 56, "rt": 627, "response": "Beta"}, "77": {"stimulus": 41, "trial": 77, "rt": 735, "response": "Alpha"}, "54": {"stimulus": 71, "trial": 54, "rt": 1805, "response": "Alpha"}, "42": {"stimulus": 38, "trial": 42, "rt": 692, "response": "Beta"}, "48": {"stimulus": 45, "trial": 48, "rt": 1547, "response": "Beta"}, "43": {"stimulus": 9, "trial": 43, "rt": 754, "response": "Beta"}, "60": {"stimulus": 22, "trial": 60, "rt": 815, "response": "Beta"}, "61": {"stimulus": 17, "trial": 61, "rt": 891, "response": "Alpha"}, "62": {"stimulus": 6, "trial": 62, "rt": 2300, "response": "Alpha"}, "63": {"stimulus": 15, "trial": 63, "rt": 2201, "response": "Alpha"}, "64": {"stimulus": 78, "trial": 64, "rt": 626, "response": "Alpha"}, "49": {"stimulus": 43, "trial": 49, "rt": 1102, "response": "Alpha"}, "66": {"stimulus": 3, "trial": 66, "rt": 871, "response": "Alpha"}, "67": {"stimulus": 34, "trial": 67, "rt": 842, "response": "Alpha"}, "68": {"stimulus": 36, "trial": 68, "rt": 1620, "response": "Beta"}, "69": {"stimulus": 18, "trial": 69, "rt": 627, "response": "Beta"}, "80": {"stimulus": 68, "trial": 80, "rt": 600, "response": "Alpha"}, "52": {"stimulus": 40, "trial": 52, "rt": 1148, "response": "Alpha"}, "53": {"stimulus": 49, "trial": 53, "rt": 812, "response": "Alpha"}, "24": {"stimulus": 10, "trial": 24, "rt": 572, "response": "Beta"}, "25": {"stimulus": 32, "trial": 25, "rt": 1271, "response": "Alpha"}, "26": {"stimulus": 64, "trial": 26, "rt": 873, "response": "Beta"}, "27": {"stimulus": 60, "trial": 27, "rt": 1597, "response": "Alpha"}, "20": {"stimulus": 79, "trial": 20, "rt": 2337, "response": "Beta"}, "21": {"stimulus": 66, "trial": 21, "rt": 998, "response": "Alpha"}, "22": {"stimulus": 55, "trial": 22, "rt": 939, "response": "Beta"}, "23": {"stimulus": 19, "trial": 23, "rt": 571, "response": "Beta"}, "46": {"stimulus": 44, "trial": 46, "rt": 1726, "response": "Alpha"}, "47": {"stimulus": 53, "trial": 47, "rt": 545, "response": "Alpha"}, "44": {"stimulus": 56, "trial": 44, "rt": 532, "response": "Beta"}, "45": {"stimulus": 50, "trial": 45, "rt": 920, "response": "Alpha"}, "28": {"stimulus": 2, "trial": 28, "rt": 2158, "response": "Alpha"}, "29": {"stimulus": 37, "trial": 29, "rt": 1096, "response": "Beta"}, "40": {"stimulus": 77, "trial": 40, "rt": 912, "response": "Alpha"}, "41": {"stimulus": 47, "trial": 41, "rt": 1559, "response": "Beta"}, "1": {"stimulus": 16, "trial": 1, "rt": 1769, "response": "Beta"}, "0": {"stimulus": 65, "trial": 0, "rt": 2486, "response": "Alpha"}, "3": {"stimulus": 0, "trial": 3, "rt": 1219, "response": "Beta"}, "2": {"stimulus": 23, "trial": 2, "rt": 1307, "response": "Beta"}, "5": {"stimulus": 72, "trial": 5, "rt": 1004, "response": "Beta"}, "4": {"stimulus": 63, "trial": 4, "rt": 977, "response": "Beta"}, "7": {"stimulus": 20, "trial": 7, "rt": 1468, "response": "Beta"}, "6": {"stimulus": 69, "trial": 6, "rt": 926, "response": "Alpha"}, "9": {"stimulus": 14, "trial": 9, "rt": 908, "response": "Beta"}, "8": {"stimulus": 33, "trial": 8, "rt": 871, "response": "Alpha"}, "78": {"stimulus": 48, "trial": 78, "rt": 542, "response": "Alpha"}, "51": {"stimulus": 27, "trial": 51, "rt": 1840, "response": "Beta"}, "39": {"stimulus": 46, "trial": 39, "rt": 729, "response": "Beta"}, "65": {"stimulus": 21, "trial": 65, "rt": 1341, "response": "Alpha"}, "76": {"stimulus": 58, "trial": 76, "rt": 800, "response": "Alpha"}, "75": {"stimulus": 57, "trial": 75, "rt": 590, "response": "Beta"}, "38": {"stimulus": 29, "trial": 38, "rt": 1281, "response": "Beta"}, "73": {"stimulus": 74, "trial": 73, "rt": 1525, "response": "Beta"}, "72": {"stimulus": 35, "trial": 72, "rt": 1522, "response": "Alpha"}, "71": {"stimulus": 62, "trial": 71, "rt": 1148, "response": "Alpha"}, "70": {"stimulus": 75, "trial": 70, "rt": 765, "response": "Beta"}, "59": {"stimulus": 52, "trial": 59, "rt": 720, "response": "Beta"}, "79": {"stimulus": 31, "trial": 79, "rt": 1124, "response": "Alpha"}, "58": {"stimulus": 59, "trial": 58, "rt": 1211, "response": "Beta"}, "11": {"stimulus": 51, "trial": 11, "rt": 661, "response": "Alpha"}, "10": {"stimulus": 24, "trial": 10, "rt": 770, "response": "Alpha"}, "13": {"stimulus": 26, "trial": 13, "rt": 1311, "response": "Beta"}, "12": {"stimulus": 25, "trial": 12, "rt": 742, "response": "Alpha"}, "15": {"stimulus": 7, "trial": 15, "rt": 2112, "response": "Alpha"}, "14": {"stimulus": 73, "trial": 14, "rt": 891, "response": "Beta"}, "17": {"stimulus": 76, "trial": 17, "rt": 639, "response": "Alpha"}, "16": {"stimulus": 12, "trial": 16, "rt": 583, "response": "Beta"}, "19": {"stimulus": 30, "trial": 19, "rt": 1741, "response": "Beta"}, "18": {"stimulus": 13, "trial": 18, "rt": 707, "response": "Alpha"}, "31": {"stimulus": 8, "trial": 31, "rt": 1645, "response": "Alpha"}, "30": {"stimulus": 1, "trial": 30, "rt": 724, "response": "Beta"}, "37": {"stimulus": 0, "trial": 37, "rt": 1119, "response": "Beta"}, "36": {"stimulus": 80, "trial": 36, "rt": 1091, "response": "Alpha"}, "35": {"stimulus": 54, "trial": 35, "rt": 603, "response": "Beta"}, "34": {"stimulus": 11, "trial": 34, "rt": 1533, "response": "Alpha"}, "33": {"stimulus": 5, "trial": 33, "rt": 1386, "response": "Beta"}, "55": {"stimulus": 28, "trial": 55, "rt": 976, "response": "Beta"}, "74": {"stimulus": 4, "trial": 74, "rt": 816, "response": "Beta"}, "32": {"stimulus": 70, "trial": 32, "rt": 871, "response": "Alpha"}, "57": {"stimulus": 61, "trial": 57, "rt": 886, "response": "Alpha"}, "50": {"stimulus": 42, "trial": 50, "rt": 979, "response": "Alpha"}}, "experiment": {"Paradigm": "TACL", "Stimuli": "Size-Color Squares and Size-Orientation Circles", "Experiment": "Generating-Multiple-Categories"}, "submit": {"timeTotal": 348522, "age": "25", "comments": "enjoyed the hit", "sex": "male"}}