{"generation": {"1": {"stimulus": 73, "trial": 1, "rt": 19234}, "0": {"stimulus": 72, "trial": 0, "rt": 15482}, "3": {"stimulus": 64, "trial": 3, "rt": 6547}, "2": {"stimulus": 63, "trial": 2, "rt": 7137}}, "info": {"finish": 1488822478317, "participant": 0, "exposed": true, "lab": false, "start": 1488821796292, "counterbalance": 7, "condition": "Cluster", "browser": {"platform": "Win32", "userAgent": "Mozilla/5.0 (Windows NT 6.1; WOW64) AppleWebKit/537.36 (KHTML, like Gecko) Chrome/56.0.2924.87 Safari/537.36"}}, "experiment": {"Paradigm": "TACL", "Stimuli": "Size-Color Squares", "Experiment": "Generating-Categories"}, "observation": {"11": {"stimulus": 14, "trial": 11, "rt": 1721}, "10": {"stimulus": 16, "trial": 10, "rt": 2626}, "1": {"stimulus": 16, "trial": 1, "rt": 5124}, "0": {"stimulus": 34, "trial": 0, "rt": 47916}, "3": {"stimulus": 14, "trial": 3, "rt": 2938}, "2": {"stimulus": 32, "trial": 2, "rt": 4085}, "5": {"stimulus": 32, "trial": 5, "rt": 1506}, "4": {"stimulus": 14, "trial": 4, "rt": 2102}, "7": {"stimulus": 34, "trial": 7, "rt": 1223}, "6": {"stimulus": 16, "trial": 6, "rt": 1753}, "9": {"stimulus": 32, "trial": 9, "rt": 1567}, "8": {"stimulus": 34, "trial": 8, "rt": 1553}}, "generalization": {"56": {"stimulus": 77, "trial": 56, "rt": 875, "response": "Beta"}, "77": {"stimulus": 67, "trial": 77, "rt": 1408, "response": "Beta"}, "54": {"stimulus": 5, "trial": 54, "rt": 511, "response": "Alpha"}, "42": {"stimulus": 4, "trial": 42, "rt": 695, "response": "Alpha"}, "48": {"stimulus": 30, "trial": 48, "rt": 570, "response": "Alpha"}, "43": {"stimulus": 6, "trial": 43, "rt": 858, "response": "Alpha"}, "60": {"stimulus": 40, "trial": 60, "rt": 1222, "response": "Alpha"}, "61": {"stimulus": 72, "trial": 61, "rt": 860, "response": "Beta"}, "62": {"stimulus": 11, "trial": 62, "rt": 976, "response": "Alpha"}, "63": {"stimulus": 66, "trial": 63, "rt": 873, "response": "Beta"}, "64": {"stimulus": 13, "trial": 64, "rt": 815, "response": "Alpha"}, "49": {"stimulus": 45, "trial": 49, "rt": 1927, "response": "Beta"}, "66": {"stimulus": 69, "trial": 66, "rt": 960, "response": "Beta"}, "67": {"stimulus": 60, "trial": 67, "rt": 2028, "response": "Beta"}, "68": {"stimulus": 21, "trial": 68, "rt": 1044, "response": "Alpha"}, "69": {"stimulus": 46, "trial": 69, "rt": 2699, "response": "Beta"}, "80": {"stimulus": 22, "trial": 80, "rt": 785, "response": "Alpha"}, "52": {"stimulus": 2, "trial": 52, "rt": 1095, "response": "Alpha"}, "53": {"stimulus": 10, "trial": 53, "rt": 813, "response": "Alpha"}, "24": {"stimulus": 65, "trial": 24, "rt": 911, "response": "Beta"}, "25": {"stimulus": 24, "trial": 25, "rt": 685, "response": "Alpha"}, "26": {"stimulus": 18, "trial": 26, "rt": 736, "response": "Alpha"}, "27": {"stimulus": 63, "trial": 27, "rt": 1328, "response": "Beta"}, "20": {"stimulus": 54, "trial": 20, "rt": 966, "response": "Beta"}, "21": {"stimulus": 33, "trial": 21, "rt": 827, "response": "Alpha"}, "22": {"stimulus": 7, "trial": 22, "rt": 695, "response": "Alpha"}, "23": {"stimulus": 1, "trial": 23, "rt": 789, "response": "Alpha"}, "46": {"stimulus": 9, "trial": 46, "rt": 757, "response": "Alpha"}, "47": {"stimulus": 31, "trial": 47, "rt": 828, "response": "Alpha"}, "44": {"stimulus": 49, "trial": 44, "rt": 1253, "response": "Alpha"}, "45": {"stimulus": 55, "trial": 45, "rt": 938, "response": "Beta"}, "28": {"stimulus": 47, "trial": 28, "rt": 4757, "response": "Beta"}, "29": {"stimulus": 59, "trial": 29, "rt": 975, "response": "Beta"}, "40": {"stimulus": 20, "trial": 40, "rt": 2475, "response": "Alpha"}, "41": {"stimulus": 71, "trial": 41, "rt": 3491, "response": "Beta"}, "1": {"stimulus": 36, "trial": 1, "rt": 4227, "response": "Alpha"}, "0": {"stimulus": 58, "trial": 0, "rt": 2240, "response": "Beta"}, "3": {"stimulus": 39, "trial": 3, "rt": 1695, "response": "Alpha"}, "2": {"stimulus": 73, "trial": 2, "rt": 923, "response": "Beta"}, "5": {"stimulus": 23, "trial": 5, "rt": 860, "response": "Alpha"}, "4": {"stimulus": 51, "trial": 4, "rt": 1325, "response": "Alpha"}, "7": {"stimulus": 62, "trial": 7, "rt": 2907, "response": "Alpha"}, "6": {"stimulus": 19, "trial": 6, "rt": 2205, "response": "Alpha"}, "9": {"stimulus": 26, "trial": 9, "rt": 759, "response": "Alpha"}, "8": {"stimulus": 32, "trial": 8, "rt": 977, "response": "Alpha"}, "78": {"stimulus": 28, "trial": 78, "rt": 769, "response": "Alpha"}, "51": {"stimulus": 8, "trial": 51, "rt": 878, "response": "Alpha"}, "39": {"stimulus": 50, "trial": 39, "rt": 1824, "response": "Alpha"}, "65": {"stimulus": 29, "trial": 65, "rt": 889, "response": "Alpha"}, "76": {"stimulus": 35, "trial": 76, "rt": 720, "response": "Alpha"}, "75": {"stimulus": 57, "trial": 75, "rt": 1561, "response": "Beta"}, "38": {"stimulus": 70, "trial": 38, "rt": 874, "response": "Beta"}, "73": {"stimulus": 15, "trial": 73, "rt": 799, "response": "Alpha"}, "72": {"stimulus": 80, "trial": 72, "rt": 860, "response": "Beta"}, "71": {"stimulus": 53, "trial": 71, "rt": 676, "response": "Beta"}, "70": {"stimulus": 34, "trial": 70, "rt": 811, "response": "Alpha"}, "59": {"stimulus": 68, "trial": 59, "rt": 1073, "response": "Beta"}, "79": {"stimulus": 74, "trial": 79, "rt": 904, "response": "Beta"}, "58": {"stimulus": 44, "trial": 58, "rt": 970, "response": "Alpha"}, "11": {"stimulus": 37, "trial": 11, "rt": 1296, "response": "Alpha"}, "10": {"stimulus": 38, "trial": 10, "rt": 2410, "response": "Alpha"}, "13": {"stimulus": 78, "trial": 13, "rt": 961, "response": "Beta"}, "12": {"stimulus": 27, "trial": 12, "rt": 815, "response": "Alpha"}, "15": {"stimulus": 12, "trial": 15, "rt": 811, "response": "Alpha"}, "14": {"stimulus": 48, "trial": 14, "rt": 2791, "response": "Alpha"}, "17": {"stimulus": 75, "trial": 17, "rt": 1044, "response": "Beta"}, "16": {"stimulus": 61, "trial": 16, "rt": 1730, "response": "Alpha"}, "19": {"stimulus": 25, "trial": 19, "rt": 805, "response": "Alpha"}, "18": {"stimulus": 76, "trial": 18, "rt": 861, "response": "Beta"}, "31": {"stimulus": 3, "trial": 31, "rt": 909, "response": "Alpha"}, "30": {"stimulus": 42, "trial": 30, "rt": 1313, "response": "Alpha"}, "37": {"stimulus": 17, "trial": 37, "rt": 766, "response": "Alpha"}, "36": {"stimulus": 43, "trial": 36, "rt": 1007, "response": "Beta"}, "35": {"stimulus": 79, "trial": 35, "rt": 937, "response": "Beta"}, "34": {"stimulus": 64, "trial": 34, "rt": 986, "response": "Beta"}, "33": {"stimulus": 14, "trial": 33, "rt": 596, "response": "Alpha"}, "55": {"stimulus": 41, "trial": 55, "rt": 1112, "response": "Alpha"}, "74": {"stimulus": 16, "trial": 74, "rt": 830, "response": "Alpha"}, "32": {"stimulus": 0, "trial": 32, "rt": 679, "response": "Alpha"}, "57": {"stimulus": 56, "trial": 57, "rt": 1078, "response": "Beta"}, "50": {"stimulus": 52, "trial": 50, "rt": 1125, "response": "Alpha"}}}