{"generation": {"1": {"stimulus": 0, "trial": 1, "rt": 13856}, "0": {"stimulus": 72, "trial": 0, "rt": 13581}, "3": {"stimulus": 18, "trial": 3, "rt": 9155}, "2": {"stimulus": 36, "trial": 2, "rt": 5973}}, "info": {"participant": 10, "exposed": true, "lab": false, "start": 1488821794661, "counterbalance": 0, "condition": "Cluster", "browser": {"platform": "Win32", "userAgent": "Mozilla/5.0 (Windows NT 6.1; WOW64; rv:51.0) Gecko/20100101 Firefox/51.0"}}, "experiment": {"Paradigm": "TACL", "Stimuli": "Size-Color Squares", "Experiment": "Generating-Categories"}, "observation": {"11": {"stimulus": 14, "trial": 11, "rt": 1481}, "10": {"stimulus": 16, "trial": 10, "rt": 2646}, "1": {"stimulus": 34, "trial": 1, "rt": 1827}, "0": {"stimulus": 16, "trial": 0, "rt": 2502}, "3": {"stimulus": 32, "trial": 3, "rt": 1448}, "2": {"stimulus": 14, "trial": 2, "rt": 1637}, "5": {"stimulus": 34, "trial": 5, "rt": 1106}, "4": {"stimulus": 32, "trial": 4, "rt": 1563}, "7": {"stimulus": 16, "trial": 7, "rt": 1098}, "6": {"stimulus": 14, "trial": 6, "rt": 1191}, "9": {"stimulus": 32, "trial": 9, "rt": 2456}, "8": {"stimulus": 34, "trial": 8, "rt": 933}}, "generalization": {"56": {"stimulus": 2, "trial": 56, "rt": 935, "response": "Alpha"}, "77": {"stimulus": 44, "trial": 77, "rt": 606, "response": "Alpha"}, "54": {"stimulus": 14, "trial": 54, "rt": 735, "response": "Alpha"}, "42": {"stimulus": 19, "trial": 42, "rt": 1387, "response": "Beta"}, "48": {"stimulus": 45, "trial": 48, "rt": 795, "response": "Beta"}, "43": {"stimulus": 25, "trial": 43, "rt": 771, "response": "Alpha"}, "60": {"stimulus": 54, "trial": 60, "rt": 941, "response": "Beta"}, "61": {"stimulus": 55, "trial": 61, "rt": 695, "response": "Beta"}, "62": {"stimulus": 32, "trial": 62, "rt": 1026, "response": "Alpha"}, "63": {"stimulus": 27, "trial": 63, "rt": 719, "response": "Beta"}, "64": {"stimulus": 6, "trial": 64, "rt": 802, "response": "Alpha"}, "49": {"stimulus": 36, "trial": 49, "rt": 603, "response": "Beta"}, "66": {"stimulus": 77, "trial": 66, "rt": 575, "response": "Alpha"}, "67": {"stimulus": 48, "trial": 67, "rt": 1277, "response": "Alpha"}, "68": {"stimulus": 58, "trial": 68, "rt": 791, "response": "Alpha"}, "69": {"stimulus": 79, "trial": 69, "rt": 715, "response": "Alpha"}, "80": {"stimulus": 5, "trial": 80, "rt": 1465, "response": "Alpha"}, "52": {"stimulus": 47, "trial": 52, "rt": 1515, "response": "Beta"}, "53": {"stimulus": 13, "trial": 53, "rt": 1285, "response": "Alpha"}, "24": {"stimulus": 11, "trial": 24, "rt": 981, "response": "Beta"}, "25": {"stimulus": 8, "trial": 25, "rt": 759, "response": "Alpha"}, "26": {"stimulus": 29, "trial": 26, "rt": 906, "response": "Beta"}, "27": {"stimulus": 53, "trial": 27, "rt": 649, "response": "Alpha"}, "20": {"stimulus": 28, "trial": 20, "rt": 794, "response": "Beta"}, "21": {"stimulus": 30, "trial": 21, "rt": 897, "response": "Beta"}, "22": {"stimulus": 68, "trial": 22, "rt": 1108, "response": "Beta"}, "23": {"stimulus": 61, "trial": 23, "rt": 962, "response": "Alpha"}, "46": {"stimulus": 20, "trial": 46, "rt": 1010, "response": "Beta"}, "47": {"stimulus": 63, "trial": 47, "rt": 855, "response": "Beta"}, "44": {"stimulus": 60, "trial": 44, "rt": 1233, "response": "Alpha"}, "45": {"stimulus": 59, "trial": 45, "rt": 604, "response": "Alpha"}, "28": {"stimulus": 75, "trial": 28, "rt": 860, "response": "Beta"}, "29": {"stimulus": 65, "trial": 29, "rt": 855, "response": "Beta"}, "40": {"stimulus": 56, "trial": 40, "rt": 801, "response": "Beta"}, "41": {"stimulus": 24, "trial": 41, "rt": 722, "response": "Alpha"}, "1": {"stimulus": 70, "trial": 1, "rt": 1052, "response": "Alpha"}, "0": {"stimulus": 9, "trial": 0, "rt": 2237, "response": "Beta"}, "3": {"stimulus": 41, "trial": 3, "rt": 832, "response": "Alpha"}, "2": {"stimulus": 42, "trial": 2, "rt": 1904, "response": "Alpha"}, "5": {"stimulus": 67, "trial": 5, "rt": 1736, "response": "Alpha"}, "4": {"stimulus": 34, "trial": 4, "rt": 555, "response": "Alpha"}, "7": {"stimulus": 37, "trial": 7, "rt": 1429, "response": "Beta"}, "6": {"stimulus": 4, "trial": 6, "rt": 1440, "response": "Alpha"}, "9": {"stimulus": 35, "trial": 9, "rt": 584, "response": "Alpha"}, "8": {"stimulus": 39, "trial": 8, "rt": 834, "response": "Beta"}, "78": {"stimulus": 57, "trial": 78, "rt": 1132, "response": "Alpha"}, "51": {"stimulus": 18, "trial": 51, "rt": 622, "response": "Beta"}, "39": {"stimulus": 0, "trial": 39, "rt": 688, "response": "Beta"}, "65": {"stimulus": 3, "trial": 65, "rt": 671, "response": "Beta"}, "76": {"stimulus": 26, "trial": 76, "rt": 1737, "response": "Alpha"}, "75": {"stimulus": 66, "trial": 75, "rt": 801, "response": "Alpha"}, "38": {"stimulus": 72, "trial": 38, "rt": 1202, "response": "Beta"}, "73": {"stimulus": 23, "trial": 73, "rt": 902, "response": "Alpha"}, "72": {"stimulus": 62, "trial": 72, "rt": 1000, "response": "Alpha"}, "71": {"stimulus": 40, "trial": 71, "rt": 1057, "response": "Alpha"}, "70": {"stimulus": 71, "trial": 70, "rt": 720, "response": "Alpha"}, "59": {"stimulus": 73, "trial": 59, "rt": 647, "response": "Beta"}, "79": {"stimulus": 43, "trial": 79, "rt": 946, "response": "Alpha"}, "58": {"stimulus": 50, "trial": 58, "rt": 977, "response": "Alpha"}, "11": {"stimulus": 17, "trial": 11, "rt": 668, "response": "Alpha"}, "10": {"stimulus": 38, "trial": 10, "rt": 931, "response": "Beta"}, "13": {"stimulus": 1, "trial": 13, "rt": 1002, "response": "Beta"}, "12": {"stimulus": 49, "trial": 12, "rt": 855, "response": "Beta"}, "15": {"stimulus": 74, "trial": 15, "rt": 1007, "response": "Beta"}, "14": {"stimulus": 69, "trial": 14, "rt": 1138, "response": "Alpha"}, "17": {"stimulus": 46, "trial": 17, "rt": 758, "response": "Beta"}, "16": {"stimulus": 64, "trial": 16, "rt": 874, "response": "Beta"}, "19": {"stimulus": 7, "trial": 19, "rt": 841, "response": "Alpha"}, "18": {"stimulus": 16, "trial": 18, "rt": 781, "response": "Alpha"}, "31": {"stimulus": 78, "trial": 31, "rt": 1048, "response": "Alpha"}, "30": {"stimulus": 31, "trial": 30, "rt": 831, "response": "Beta"}, "37": {"stimulus": 21, "trial": 37, "rt": 968, "response": "Alpha"}, "36": {"stimulus": 22, "trial": 36, "rt": 3802, "response": "Alpha"}, "35": {"stimulus": 80, "trial": 35, "rt": 1222, "response": "Alpha"}, "34": {"stimulus": 15, "trial": 34, "rt": 2289, "response": "Alpha"}, "33": {"stimulus": 10, "trial": 33, "rt": 794, "response": "Beta"}, "55": {"stimulus": 12, "trial": 55, "rt": 1408, "response": "Alpha"}, "74": {"stimulus": 52, "trial": 74, "rt": 785, "response": "Alpha"}, "32": {"stimulus": 76, "trial": 32, "rt": 2318, "response": "Alpha"}, "57": {"stimulus": 33, "trial": 57, "rt": 1085, "response": "Alpha"}, "50": {"stimulus": 51, "trial": 50, "rt": 736, "response": "Alpha"}}}