{"generation": {"1": {"stimulus": 17, "trial": 1, "rt": 11921}, "0": {"stimulus": 53, "trial": 0, "rt": 11533}, "3": {"stimulus": 35, "trial": 3, "rt": 4507}, "2": {"stimulus": 44, "trial": 2, "rt": 4803}}, "info": {"finish": 1488822394643, "participant": 100, "exposed": true, "lab": false, "start": 1488822201755, "counterbalance": 0, "condition": "Cluster", "browser": {"platform": "Win32", "userAgent": "Mozilla/5.0 (Windows NT 6.1; WOW64) AppleWebKit/537.36 (KHTML, like Gecko) Chrome/56.0.2924.87 Safari/537.36"}}, "experiment": {"Paradigm": "TACL", "Stimuli": "Size-Color Squares", "Experiment": "Generating-Categories"}, "observation": {"11": {"stimulus": 32, "trial": 11, "rt": 1811}, "10": {"stimulus": 14, "trial": 10, "rt": 1115}, "1": {"stimulus": 16, "trial": 1, "rt": 1946}, "0": {"stimulus": 32, "trial": 0, "rt": 2599}, "3": {"stimulus": 34, "trial": 3, "rt": 1516}, "2": {"stimulus": 14, "trial": 2, "rt": 1971}, "5": {"stimulus": 34, "trial": 5, "rt": 1259}, "4": {"stimulus": 14, "trial": 4, "rt": 1922}, "7": {"stimulus": 32, "trial": 7, "rt": 1234}, "6": {"stimulus": 16, "trial": 6, "rt": 1193}, "9": {"stimulus": 34, "trial": 9, "rt": 1514}, "8": {"stimulus": 16, "trial": 8, "rt": 1139}}, "generalization": {"56": {"stimulus": 19, "trial": 56, "rt": 1059, "response": "Alpha"}, "77": {"stimulus": 46, "trial": 77, "rt": 651, "response": "Alpha"}, "54": {"stimulus": 59, "trial": 54, "rt": 515, "response": "Alpha"}, "42": {"stimulus": 30, "trial": 42, "rt": 732, "response": "Alpha"}, "48": {"stimulus": 16, "trial": 48, "rt": 564, "response": "Beta"}, "43": {"stimulus": 45, "trial": 43, "rt": 515, "response": "Alpha"}, "60": {"stimulus": 9, "trial": 60, "rt": 474, "response": "Alpha"}, "61": {"stimulus": 65, "trial": 61, "rt": 389, "response": "Alpha"}, "62": {"stimulus": 3, "trial": 62, "rt": 419, "response": "Alpha"}, "63": {"stimulus": 25, "trial": 63, "rt": 1003, "response": "Beta"}, "64": {"stimulus": 79, "trial": 64, "rt": 667, "response": "Beta"}, "49": {"stimulus": 74, "trial": 49, "rt": 755, "response": "Alpha"}, "66": {"stimulus": 68, "trial": 66, "rt": 921, "response": "Beta"}, "67": {"stimulus": 60, "trial": 67, "rt": 675, "response": "Beta"}, "68": {"stimulus": 12, "trial": 68, "rt": 699, "response": "Alpha"}, "69": {"stimulus": 44, "trial": 69, "rt": 843, "response": "Beta"}, "80": {"stimulus": 38, "trial": 80, "rt": 419, "response": "Alpha"}, "52": {"stimulus": 2, "trial": 52, "rt": 1115, "response": "Alpha"}, "53": {"stimulus": 47, "trial": 53, "rt": 515, "response": "Alpha"}, "24": {"stimulus": 0, "trial": 24, "rt": 531, "response": "Alpha"}, "25": {"stimulus": 22, "trial": 25, "rt": 555, "response": "Alpha"}, "26": {"stimulus": 58, "trial": 26, "rt": 523, "response": "Alpha"}, "27": {"stimulus": 32, "trial": 27, "rt": 467, "response": "Alpha"}, "20": {"stimulus": 54, "trial": 20, "rt": 859, "response": "Alpha"}, "21": {"stimulus": 13, "trial": 21, "rt": 611, "response": "Alpha"}, "22": {"stimulus": 5, "trial": 22, "rt": 507, "response": "Alpha"}, "23": {"stimulus": 56, "trial": 23, "rt": 851, "response": "Alpha"}, "46": {"stimulus": 24, "trial": 46, "rt": 682, "response": "Beta"}, "47": {"stimulus": 8, "trial": 47, "rt": 683, "response": "Beta"}, "44": {"stimulus": 77, "trial": 44, "rt": 451, "response": "Alpha"}, "45": {"stimulus": 34, "trial": 45, "rt": 1011, "response": "Beta"}, "28": {"stimulus": 63, "trial": 28, "rt": 484, "response": "Alpha"}, "29": {"stimulus": 78, "trial": 29, "rt": 876, "response": "Beta"}, "40": {"stimulus": 41, "trial": 40, "rt": 1051, "response": "Alpha"}, "41": {"stimulus": 33, "trial": 41, "rt": 579, "response": "Alpha"}, "1": {"stimulus": 21, "trial": 1, "rt": 787, "response": "Alpha"}, "0": {"stimulus": 6, "trial": 0, "rt": 1362, "response": "Alpha"}, "3": {"stimulus": 10, "trial": 3, "rt": 2772, "response": "Alpha"}, "2": {"stimulus": 66, "trial": 2, "rt": 1411, "response": "Alpha"}, "5": {"stimulus": 20, "trial": 5, "rt": 977, "response": "Alpha"}, "4": {"stimulus": 80, "trial": 4, "rt": 819, "response": "Beta"}, "7": {"stimulus": 67, "trial": 7, "rt": 3978, "response": "Alpha"}, "6": {"stimulus": 1, "trial": 6, "rt": 757, "response": "Alpha"}, "9": {"stimulus": 14, "trial": 9, "rt": 834, "response": "Beta"}, "8": {"stimulus": 55, "trial": 8, "rt": 1956, "response": "Alpha"}, "78": {"stimulus": 27, "trial": 78, "rt": 427, "response": "Alpha"}, "51": {"stimulus": 52, "trial": 51, "rt": 859, "response": "Beta"}, "39": {"stimulus": 15, "trial": 39, "rt": 963, "response": "Beta"}, "65": {"stimulus": 42, "trial": 65, "rt": 709, "response": "Beta"}, "76": {"stimulus": 35, "trial": 76, "rt": 843, "response": "Beta"}, "75": {"stimulus": 11, "trial": 75, "rt": 650, "response": "Alpha"}, "38": {"stimulus": 26, "trial": 38, "rt": 691, "response": "Beta"}, "73": {"stimulus": 61, "trial": 73, "rt": 547, "response": "Alpha"}, "72": {"stimulus": 23, "trial": 72, "rt": 659, "response": "Alpha"}, "71": {"stimulus": 50, "trial": 71, "rt": 844, "response": "Alpha"}, "70": {"stimulus": 71, "trial": 70, "rt": 587, "response": "Beta"}, "59": {"stimulus": 31, "trial": 59, "rt": 699, "response": "Alpha"}, "79": {"stimulus": 57, "trial": 79, "rt": 458, "response": "Alpha"}, "58": {"stimulus": 51, "trial": 58, "rt": 1170, "response": "Alpha"}, "11": {"stimulus": 17, "trial": 11, "rt": 614, "response": "Beta"}, "10": {"stimulus": 53, "trial": 10, "rt": 635, "response": "Beta"}, "13": {"stimulus": 37, "trial": 13, "rt": 772, "response": "Alpha"}, "12": {"stimulus": 62, "trial": 12, "rt": 532, "response": "Beta"}, "15": {"stimulus": 48, "trial": 15, "rt": 562, "response": "Alpha"}, "14": {"stimulus": 76, "trial": 14, "rt": 738, "response": "Alpha"}, "17": {"stimulus": 73, "trial": 17, "rt": 473, "response": "Alpha"}, "16": {"stimulus": 18, "trial": 16, "rt": 682, "response": "Alpha"}, "19": {"stimulus": 7, "trial": 19, "rt": 434, "response": "Beta"}, "18": {"stimulus": 69, "trial": 18, "rt": 780, "response": "Beta"}, "31": {"stimulus": 49, "trial": 31, "rt": 714, "response": "Alpha"}, "30": {"stimulus": 72, "trial": 30, "rt": 703, "response": "Alpha"}, "37": {"stimulus": 36, "trial": 37, "rt": 811, "response": "Alpha"}, "36": {"stimulus": 29, "trial": 36, "rt": 627, "response": "Alpha"}, "35": {"stimulus": 40, "trial": 35, "rt": 899, "response": "Alpha"}, "34": {"stimulus": 28, "trial": 34, "rt": 490, "response": "Alpha"}, "33": {"stimulus": 64, "trial": 33, "rt": 691, "response": "Alpha"}, "55": {"stimulus": 75, "trial": 55, "rt": 643, "response": "Alpha"}, "74": {"stimulus": 70, "trial": 74, "rt": 1394, "response": "Beta"}, "32": {"stimulus": 43, "trial": 32, "rt": 916, "response": "Beta"}, "57": {"stimulus": 39, "trial": 57, "rt": 467, "response": "Alpha"}, "50": {"stimulus": 4, "trial": 50, "rt": 634, "response": "Alpha"}}}