{"generation": {"1": {"stimulus": 79, "trial": 1, "rt": 7117}, "0": {"stimulus": 80, "trial": 0, "rt": 14509}, "3": {"stimulus": 73, "trial": 3, "rt": 8218}, "2": {"stimulus": 76, "trial": 2, "rt": 4696}}, "info": {"finish": 1488822426062, "participant": 101, "exposed": true, "lab": false, "start": 1488822115587, "counterbalance": 2, "condition": "Row", "browser": {"platform": "Win32", "userAgent": "Mozilla/5.0 (Windows NT 6.1; WOW64) AppleWebKit/537.36 (KHTML, like Gecko) Chrome/56.0.2924.87 Safari/537.36"}}, "experiment": {"Paradigm": "TACL", "Stimuli": "Size-Color Squares", "Experiment": "Generating-Categories"}, "observation": {"11": {"stimulus": 10, "trial": 11, "rt": 8073}, "10": {"stimulus": 14, "trial": 10, "rt": 7429}, "1": {"stimulus": 16, "trial": 1, "rt": 2804}, "0": {"stimulus": 10, "trial": 0, "rt": 2844}, "3": {"stimulus": 14, "trial": 3, "rt": 4236}, "2": {"stimulus": 12, "trial": 2, "rt": 2381}, "5": {"stimulus": 12, "trial": 5, "rt": 2818}, "4": {"stimulus": 14, "trial": 4, "rt": 4142}, "7": {"stimulus": 16, "trial": 7, "rt": 5942}, "6": {"stimulus": 10, "trial": 6, "rt": 5537}, "9": {"stimulus": 12, "trial": 9, "rt": 4302}, "8": {"stimulus": 16, "trial": 8, "rt": 6001}}, "generalization": {"56": {"stimulus": 71, "trial": 56, "rt": 1321, "response": "Beta"}, "77": {"stimulus": 56, "trial": 77, "rt": 921, "response": "Beta"}, "54": {"stimulus": 34, "trial": 54, "rt": 991, "response": "Beta"}, "42": {"stimulus": 1, "trial": 42, "rt": 1278, "response": "Alpha"}, "48": {"stimulus": 27, "trial": 48, "rt": 1361, "response": "Beta"}, "43": {"stimulus": 26, "trial": 43, "rt": 1130, "response": "Beta"}, "60": {"stimulus": 48, "trial": 60, "rt": 3317, "response": "Beta"}, "61": {"stimulus": 9, "trial": 61, "rt": 1045, "response": "Alpha"}, "62": {"stimulus": 55, "trial": 62, "rt": 1087, "response": "Beta"}, "63": {"stimulus": 2, "trial": 63, "rt": 1027, "response": "Alpha"}, "64": {"stimulus": 17, "trial": 64, "rt": 1488, "response": "Alpha"}, "49": {"stimulus": 3, "trial": 49, "rt": 964, "response": "Alpha"}, "66": {"stimulus": 51, "trial": 66, "rt": 1101, "response": "Beta"}, "67": {"stimulus": 74, "trial": 67, "rt": 857, "response": "Beta"}, "68": {"stimulus": 44, "trial": 68, "rt": 1280, "response": "Beta"}, "69": {"stimulus": 25, "trial": 69, "rt": 965, "response": "Beta"}, "80": {"stimulus": 23, "trial": 80, "rt": 1132, "response": "Beta"}, "52": {"stimulus": 7, "trial": 52, "rt": 913, "response": "Alpha"}, "53": {"stimulus": 14, "trial": 53, "rt": 1082, "response": "Alpha"}, "24": {"stimulus": 30, "trial": 24, "rt": 1238, "response": "Beta"}, "25": {"stimulus": 42, "trial": 25, "rt": 1168, "response": "Beta"}, "26": {"stimulus": 24, "trial": 26, "rt": 943, "response": "Alpha"}, "27": {"stimulus": 38, "trial": 27, "rt": 1006, "response": "Beta"}, "20": {"stimulus": 73, "trial": 20, "rt": 1545, "response": "Beta"}, "21": {"stimulus": 28, "trial": 21, "rt": 1607, "response": "Beta"}, "22": {"stimulus": 43, "trial": 22, "rt": 1662, "response": "Beta"}, "23": {"stimulus": 31, "trial": 23, "rt": 1234, "response": "Beta"}, "46": {"stimulus": 79, "trial": 46, "rt": 1085, "response": "Beta"}, "47": {"stimulus": 21, "trial": 47, "rt": 1891, "response": "Beta"}, "44": {"stimulus": 36, "trial": 44, "rt": 1156, "response": "Beta"}, "45": {"stimulus": 49, "trial": 45, "rt": 1188, "response": "Beta"}, "28": {"stimulus": 64, "trial": 28, "rt": 1121, "response": "Beta"}, "29": {"stimulus": 33, "trial": 29, "rt": 2905, "response": "Beta"}, "40": {"stimulus": 8, "trial": 40, "rt": 1339, "response": "Alpha"}, "41": {"stimulus": 53, "trial": 41, "rt": 1050, "response": "Beta"}, "1": {"stimulus": 37, "trial": 1, "rt": 1735, "response": "Beta"}, "0": {"stimulus": 66, "trial": 0, "rt": 1763, "response": "Beta"}, "3": {"stimulus": 77, "trial": 3, "rt": 1245, "response": "Beta"}, "2": {"stimulus": 54, "trial": 2, "rt": 1713, "response": "Beta"}, "5": {"stimulus": 41, "trial": 5, "rt": 1679, "response": "Beta"}, "4": {"stimulus": 18, "trial": 4, "rt": 1130, "response": "Alpha"}, "7": {"stimulus": 29, "trial": 7, "rt": 2198, "response": "Beta"}, "6": {"stimulus": 15, "trial": 6, "rt": 1237, "response": "Alpha"}, "9": {"stimulus": 78, "trial": 9, "rt": 1487, "response": "Beta"}, "8": {"stimulus": 6, "trial": 8, "rt": 1133, "response": "Alpha"}, "78": {"stimulus": 80, "trial": 78, "rt": 2032, "response": "Beta"}, "51": {"stimulus": 19, "trial": 51, "rt": 1672, "response": "Beta"}, "39": {"stimulus": 62, "trial": 39, "rt": 1286, "response": "Beta"}, "65": {"stimulus": 0, "trial": 65, "rt": 1346, "response": "Alpha"}, "76": {"stimulus": 58, "trial": 76, "rt": 717, "response": "Beta"}, "75": {"stimulus": 60, "trial": 75, "rt": 781, "response": "Beta"}, "38": {"stimulus": 50, "trial": 38, "rt": 1091, "response": "Beta"}, "73": {"stimulus": 57, "trial": 73, "rt": 813, "response": "Beta"}, "72": {"stimulus": 12, "trial": 72, "rt": 1431, "response": "Alpha"}, "71": {"stimulus": 75, "trial": 71, "rt": 967, "response": "Beta"}, "70": {"stimulus": 76, "trial": 70, "rt": 848, "response": "Beta"}, "59": {"stimulus": 52, "trial": 59, "rt": 1290, "response": "Beta"}, "79": {"stimulus": 11, "trial": 79, "rt": 1933, "response": "Alpha"}, "58": {"stimulus": 69, "trial": 58, "rt": 1175, "response": "Beta"}, "11": {"stimulus": 65, "trial": 11, "rt": 1350, "response": "Beta"}, "10": {"stimulus": 20, "trial": 10, "rt": 4852, "response": "Beta"}, "13": {"stimulus": 72, "trial": 13, "rt": 1757, "response": "Beta"}, "12": {"stimulus": 68, "trial": 12, "rt": 1384, "response": "Beta"}, "15": {"stimulus": 47, "trial": 15, "rt": 1371, "response": "Beta"}, "14": {"stimulus": 61, "trial": 14, "rt": 1212, "response": "Beta"}, "17": {"stimulus": 59, "trial": 17, "rt": 1183, "response": "Beta"}, "16": {"stimulus": 4, "trial": 16, "rt": 1175, "response": "Alpha"}, "19": {"stimulus": 39, "trial": 19, "rt": 1083, "response": "Beta"}, "18": {"stimulus": 13, "trial": 18, "rt": 1069, "response": "Alpha"}, "31": {"stimulus": 46, "trial": 31, "rt": 896, "response": "Beta"}, "30": {"stimulus": 10, "trial": 30, "rt": 839, "response": "Alpha"}, "37": {"stimulus": 5, "trial": 37, "rt": 958, "response": "Alpha"}, "36": {"stimulus": 22, "trial": 36, "rt": 5134, "response": "Beta"}, "35": {"stimulus": 16, "trial": 35, "rt": 1058, "response": "Alpha"}, "34": {"stimulus": 35, "trial": 34, "rt": 1519, "response": "Beta"}, "33": {"stimulus": 70, "trial": 33, "rt": 1162, "response": "Beta"}, "55": {"stimulus": 63, "trial": 55, "rt": 989, "response": "Beta"}, "74": {"stimulus": 40, "trial": 74, "rt": 854, "response": "Beta"}, "32": {"stimulus": 67, "trial": 32, "rt": 1267, "response": "Beta"}, "57": {"stimulus": 45, "trial": 57, "rt": 1265, "response": "Beta"}, "50": {"stimulus": 32, "trial": 50, "rt": 1349, "response": "Beta"}}}