{"generation": {"1": {"stimulus": 72, "trial": 1, "rt": 6486}, "0": {"stimulus": 8, "trial": 0, "rt": 13874}, "3": {"stimulus": 17, "trial": 3, "rt": 7320}, "2": {"stimulus": 54, "trial": 2, "rt": 13799}}, "info": {"finish": 1488822475099, "participant": 103, "exposed": true, "lab": false, "start": 1488822218911, "counterbalance": 7, "condition": "XOR", "browser": {"platform": "Win32", "userAgent": "Mozilla/5.0 (Windows NT 6.2; Win64; x64) AppleWebKit/537.36 (KHTML, like Gecko) Chrome/56.0.2924.87 Safari/537.36"}}, "experiment": {"Paradigm": "TACL", "Stimuli": "Size-Color Squares", "Experiment": "Generating-Categories"}, "observation": {"11": {"stimulus": 0, "trial": 11, "rt": 1011}, "10": {"stimulus": 80, "trial": 10, "rt": 1049}, "1": {"stimulus": 0, "trial": 1, "rt": 1863}, "0": {"stimulus": 10, "trial": 0, "rt": 2900}, "3": {"stimulus": 70, "trial": 3, "rt": 1300}, "2": {"stimulus": 80, "trial": 2, "rt": 1820}, "5": {"stimulus": 10, "trial": 5, "rt": 1343}, "4": {"stimulus": 80, "trial": 4, "rt": 1515}, "7": {"stimulus": 0, "trial": 7, "rt": 957}, "6": {"stimulus": 70, "trial": 6, "rt": 1036}, "9": {"stimulus": 70, "trial": 9, "rt": 911}, "8": {"stimulus": 10, "trial": 8, "rt": 948}}, "generalization": {"56": {"stimulus": 58, "trial": 56, "rt": 930, "response": "Beta"}, "77": {"stimulus": 40, "trial": 77, "rt": 658, "response": "Beta"}, "54": {"stimulus": 24, "trial": 54, "rt": 1603, "response": "Beta"}, "42": {"stimulus": 44, "trial": 42, "rt": 2193, "response": "Beta"}, "48": {"stimulus": 73, "trial": 48, "rt": 1723, "response": "Beta"}, "43": {"stimulus": 12, "trial": 43, "rt": 1723, "response": "Alpha"}, "60": {"stimulus": 23, "trial": 60, "rt": 1211, "response": "Alpha"}, "61": {"stimulus": 0, "trial": 61, "rt": 715, "response": "Alpha"}, "62": {"stimulus": 8, "trial": 62, "rt": 1090, "response": "Beta"}, "63": {"stimulus": 78, "trial": 63, "rt": 1197, "response": "Alpha"}, "64": {"stimulus": 67, "trial": 64, "rt": 1264, "response": "Alpha"}, "49": {"stimulus": 31, "trial": 49, "rt": 1171, "response": "Alpha"}, "66": {"stimulus": 47, "trial": 66, "rt": 1322, "response": "Alpha"}, "67": {"stimulus": 4, "trial": 67, "rt": 1087, "response": "Alpha"}, "68": {"stimulus": 43, "trial": 68, "rt": 1305, "response": "Alpha"}, "69": {"stimulus": 30, "trial": 69, "rt": 950, "response": "Alpha"}, "80": {"stimulus": 79, "trial": 80, "rt": 674, "response": "Beta"}, "52": {"stimulus": 14, "trial": 52, "rt": 1249, "response": "Beta"}, "53": {"stimulus": 75, "trial": 53, "rt": 1549, "response": "Alpha"}, "24": {"stimulus": 7, "trial": 24, "rt": 691, "response": "Alpha"}, "25": {"stimulus": 36, "trial": 25, "rt": 911, "response": "Alpha"}, "26": {"stimulus": 68, "trial": 26, "rt": 866, "response": "Beta"}, "27": {"stimulus": 10, "trial": 27, "rt": 817, "response": "Alpha"}, "20": {"stimulus": 56, "trial": 20, "rt": 921, "response": "Beta"}, "21": {"stimulus": 53, "trial": 21, "rt": 1613, "response": "Beta"}, "22": {"stimulus": 16, "trial": 22, "rt": 1488, "response": "Alpha"}, "23": {"stimulus": 27, "trial": 23, "rt": 1940, "response": "Alpha"}, "46": {"stimulus": 9, "trial": 46, "rt": 880, "response": "Alpha"}, "47": {"stimulus": 21, "trial": 47, "rt": 799, "response": "Alpha"}, "44": {"stimulus": 6, "trial": 44, "rt": 1285, "response": "Beta"}, "45": {"stimulus": 59, "trial": 45, "rt": 1874, "response": "Beta"}, "28": {"stimulus": 57, "trial": 28, "rt": 1612, "response": "Beta"}, "29": {"stimulus": 46, "trial": 29, "rt": 979, "response": "Beta"}, "40": {"stimulus": 11, "trial": 40, "rt": 1167, "response": "Alpha"}, "41": {"stimulus": 32, "trial": 41, "rt": 1350, "response": "Alpha"}, "1": {"stimulus": 74, "trial": 1, "rt": 1568, "response": "Beta"}, "0": {"stimulus": 52, "trial": 0, "rt": 4602, "response": "Beta"}, "3": {"stimulus": 41, "trial": 3, "rt": 2964, "response": "Alpha"}, "2": {"stimulus": 71, "trial": 2, "rt": 1242, "response": "Beta"}, "5": {"stimulus": 70, "trial": 5, "rt": 710, "response": "Beta"}, "4": {"stimulus": 69, "trial": 4, "rt": 1165, "response": "Beta"}, "7": {"stimulus": 72, "trial": 7, "rt": 3763, "response": "Beta"}, "6": {"stimulus": 60, "trial": 6, "rt": 728, "response": "Beta"}, "9": {"stimulus": 80, "trial": 9, "rt": 1093, "response": "Beta"}, "8": {"stimulus": 66, "trial": 8, "rt": 1090, "response": "Beta"}, "78": {"stimulus": 62, "trial": 78, "rt": 653, "response": "Beta"}, "51": {"stimulus": 2, "trial": 51, "rt": 982, "response": "Alpha"}, "39": {"stimulus": 42, "trial": 39, "rt": 943, "response": "Beta"}, "65": {"stimulus": 37, "trial": 65, "rt": 1811, "response": "Alpha"}, "76": {"stimulus": 51, "trial": 76, "rt": 1479, "response": "Beta"}, "75": {"stimulus": 54, "trial": 75, "rt": 1451, "response": "Beta"}, "38": {"stimulus": 15, "trial": 38, "rt": 1217, "response": "Beta"}, "73": {"stimulus": 63, "trial": 73, "rt": 1615, "response": "Beta"}, "72": {"stimulus": 28, "trial": 72, "rt": 1429, "response": "Alpha"}, "71": {"stimulus": 22, "trial": 71, "rt": 1465, "response": "Beta"}, "70": {"stimulus": 26, "trial": 70, "rt": 1789, "response": "Beta"}, "59": {"stimulus": 33, "trial": 59, "rt": 1693, "response": "Beta"}, "79": {"stimulus": 76, "trial": 79, "rt": 530, "response": "Beta"}, "58": {"stimulus": 35, "trial": 58, "rt": 1833, "response": "Beta"}, "11": {"stimulus": 55, "trial": 11, "rt": 1082, "response": "Beta"}, "10": {"stimulus": 3, "trial": 10, "rt": 1713, "response": "Alpha"}, "13": {"stimulus": 20, "trial": 13, "rt": 961, "response": "Alpha"}, "12": {"stimulus": 19, "trial": 12, "rt": 819, "response": "Alpha"}, "15": {"stimulus": 48, "trial": 15, "rt": 3508, "response": "Alpha"}, "14": {"stimulus": 17, "trial": 14, "rt": 1039, "response": "Beta"}, "17": {"stimulus": 18, "trial": 17, "rt": 799, "response": "Alpha"}, "16": {"stimulus": 13, "trial": 16, "rt": 964, "response": "Alpha"}, "19": {"stimulus": 1, "trial": 19, "rt": 696, "response": "Alpha"}, "18": {"stimulus": 65, "trial": 18, "rt": 1086, "response": "Beta"}, "31": {"stimulus": 5, "trial": 31, "rt": 1431, "response": "Beta"}, "30": {"stimulus": 38, "trial": 30, "rt": 983, "response": "Beta"}, "37": {"stimulus": 29, "trial": 37, "rt": 711, "response": "Alpha"}, "36": {"stimulus": 39, "trial": 36, "rt": 1166, "response": "Alpha"}, "35": {"stimulus": 64, "trial": 35, "rt": 1251, "response": "Beta"}, "34": {"stimulus": 77, "trial": 34, "rt": 2568, "response": "Alpha"}, "33": {"stimulus": 25, "trial": 33, "rt": 2770, "response": "Beta"}, "55": {"stimulus": 61, "trial": 55, "rt": 2329, "response": "Beta"}, "74": {"stimulus": 50, "trial": 74, "rt": 1159, "response": "Beta"}, "32": {"stimulus": 49, "trial": 32, "rt": 794, "response": "Beta"}, "57": {"stimulus": 45, "trial": 57, "rt": 1284, "response": "Alpha"}, "50": {"stimulus": 34, "trial": 50, "rt": 1674, "response": "Beta"}}}