{"generation": {"1": {"stimulus": 62, "trial": 1, "rt": 8424}, "0": {"stimulus": 80, "trial": 0, "rt": 8016}, "3": {"stimulus": 71, "trial": 3, "rt": 7229}, "2": {"stimulus": 53, "trial": 2, "rt": 5631}}, "info": {"participant": 105, "exposed": true, "lab": false, "start": 1488822243546, "counterbalance": 1, "condition": "Row", "browser": {"platform": "Win32", "userAgent": "Mozilla/5.0 (Windows NT 10.0; WOW64) AppleWebKit/537.36 (KHTML, like Gecko) Chrome/56.0.2924.87 Safari/537.36"}}, "experiment": {"Paradigm": "TACL", "Stimuli": "Size-Color Squares", "Experiment": "Generating-Categories"}, "observation": {"11": {"stimulus": 16, "trial": 11, "rt": 1088}, "10": {"stimulus": 12, "trial": 10, "rt": 757}, "1": {"stimulus": 12, "trial": 1, "rt": 1158}, "0": {"stimulus": 16, "trial": 0, "rt": 1769}, "3": {"stimulus": 14, "trial": 3, "rt": 1079}, "2": {"stimulus": 10, "trial": 2, "rt": 915}, "5": {"stimulus": 16, "trial": 5, "rt": 957}, "4": {"stimulus": 10, "trial": 4, "rt": 871}, "7": {"stimulus": 12, "trial": 7, "rt": 1930}, "6": {"stimulus": 14, "trial": 6, "rt": 710}, "9": {"stimulus": 14, "trial": 9, "rt": 813}, "8": {"stimulus": 10, "trial": 8, "rt": 894}}, "generalization": {"56": {"stimulus": 54, "trial": 56, "rt": 537, "response": "Beta"}, "77": {"stimulus": 28, "trial": 77, "rt": 655, "response": "Alpha"}, "54": {"stimulus": 0, "trial": 54, "rt": 516, "response": "Alpha"}, "42": {"stimulus": 10, "trial": 42, "rt": 1319, "response": "Alpha"}, "48": {"stimulus": 76, "trial": 48, "rt": 669, "response": "Beta"}, "43": {"stimulus": 59, "trial": 43, "rt": 1718, "response": "Beta"}, "60": {"stimulus": 55, "trial": 60, "rt": 400, "response": "Beta"}, "61": {"stimulus": 65, "trial": 61, "rt": 403, "response": "Beta"}, "62": {"stimulus": 26, "trial": 62, "rt": 722, "response": "Alpha"}, "63": {"stimulus": 8, "trial": 63, "rt": 561, "response": "Alpha"}, "64": {"stimulus": 52, "trial": 64, "rt": 605, "response": "Beta"}, "49": {"stimulus": 72, "trial": 49, "rt": 372, "response": "Beta"}, "66": {"stimulus": 6, "trial": 66, "rt": 657, "response": "Alpha"}, "67": {"stimulus": 39, "trial": 67, "rt": 571, "response": "Beta"}, "68": {"stimulus": 29, "trial": 68, "rt": 425, "response": "Beta"}, "69": {"stimulus": 27, "trial": 69, "rt": 561, "response": "Beta"}, "80": {"stimulus": 75, "trial": 80, "rt": 481, "response": "Beta"}, "52": {"stimulus": 17, "trial": 52, "rt": 647, "response": "Alpha"}, "53": {"stimulus": 47, "trial": 53, "rt": 1056, "response": "Beta"}, "24": {"stimulus": 34, "trial": 24, "rt": 1330, "response": "Alpha"}, "25": {"stimulus": 38, "trial": 25, "rt": 546, "response": "Alpha"}, "26": {"stimulus": 68, "trial": 26, "rt": 484, "response": "Beta"}, "27": {"stimulus": 14, "trial": 27, "rt": 600, "response": "Alpha"}, "20": {"stimulus": 50, "trial": 20, "rt": 489, "response": "Beta"}, "21": {"stimulus": 11, "trial": 21, "rt": 733, "response": "Alpha"}, "22": {"stimulus": 32, "trial": 22, "rt": 763, "response": "Alpha"}, "23": {"stimulus": 15, "trial": 23, "rt": 575, "response": "Alpha"}, "46": {"stimulus": 36, "trial": 46, "rt": 1180, "response": "Beta"}, "47": {"stimulus": 77, "trial": 47, "rt": 749, "response": "Beta"}, "44": {"stimulus": 7, "trial": 44, "rt": 598, "response": "Alpha"}, "45": {"stimulus": 70, "trial": 45, "rt": 414, "response": "Beta"}, "28": {"stimulus": 60, "trial": 28, "rt": 355, "response": "Beta"}, "29": {"stimulus": 22, "trial": 29, "rt": 375, "response": "Beta"}, "40": {"stimulus": 1, "trial": 40, "rt": 2672, "response": "Alpha"}, "41": {"stimulus": 66, "trial": 41, "rt": 16305, "response": "Beta"}, "1": {"stimulus": 44, "trial": 1, "rt": 814, "response": "Alpha"}, "0": {"stimulus": 31, "trial": 0, "rt": 1703, "response": "Alpha"}, "3": {"stimulus": 4, "trial": 3, "rt": 863, "response": "Alpha"}, "2": {"stimulus": 37, "trial": 2, "rt": 634, "response": "Alpha"}, "5": {"stimulus": 48, "trial": 5, "rt": 463, "response": "Beta"}, "4": {"stimulus": 79, "trial": 4, "rt": 1010, "response": "Beta"}, "7": {"stimulus": 67, "trial": 7, "rt": 1284, "response": "Beta"}, "6": {"stimulus": 9, "trial": 6, "rt": 790, "response": "Alpha"}, "9": {"stimulus": 43, "trial": 9, "rt": 743, "response": "Alpha"}, "8": {"stimulus": 64, "trial": 8, "rt": 693, "response": "Beta"}, "78": {"stimulus": 53, "trial": 78, "rt": 974, "response": "Beta"}, "51": {"stimulus": 35, "trial": 51, "rt": 1164, "response": "Beta"}, "39": {"stimulus": 12, "trial": 39, "rt": 835, "response": "Alpha"}, "65": {"stimulus": 62, "trial": 65, "rt": 342, "response": "Beta"}, "76": {"stimulus": 19, "trial": 76, "rt": 797, "response": "Alpha"}, "75": {"stimulus": 46, "trial": 75, "rt": 764, "response": "Beta"}, "38": {"stimulus": 61, "trial": 38, "rt": 860, "response": "Beta"}, "73": {"stimulus": 3, "trial": 73, "rt": 1485, "response": "Alpha"}, "72": {"stimulus": 56, "trial": 72, "rt": 353, "response": "Beta"}, "71": {"stimulus": 80, "trial": 71, "rt": 627, "response": "Beta"}, "70": {"stimulus": 40, "trial": 70, "rt": 567, "response": "Beta"}, "59": {"stimulus": 69, "trial": 59, "rt": 595, "response": "Beta"}, "79": {"stimulus": 45, "trial": 79, "rt": 734, "response": "Beta"}, "58": {"stimulus": 16, "trial": 58, "rt": 633, "response": "Alpha"}, "11": {"stimulus": 41, "trial": 11, "rt": 704, "response": "Beta"}, "10": {"stimulus": 58, "trial": 10, "rt": 596, "response": "Beta"}, "13": {"stimulus": 25, "trial": 13, "rt": 441, "response": "Alpha"}, "12": {"stimulus": 18, "trial": 12, "rt": 525, "response": "Alpha"}, "15": {"stimulus": 42, "trial": 15, "rt": 515, "response": "Alpha"}, "14": {"stimulus": 74, "trial": 14, "rt": 1076, "response": "Beta"}, "17": {"stimulus": 2, "trial": 17, "rt": 597, "response": "Alpha"}, "16": {"stimulus": 71, "trial": 16, "rt": 459, "response": "Beta"}, "19": {"stimulus": 24, "trial": 19, "rt": 1058, "response": "Alpha"}, "18": {"stimulus": 63, "trial": 18, "rt": 695, "response": "Beta"}, "31": {"stimulus": 23, "trial": 31, "rt": 705, "response": "Alpha"}, "30": {"stimulus": 78, "trial": 30, "rt": 633, "response": "Beta"}, "37": {"stimulus": 33, "trial": 37, "rt": 1602, "response": "Beta"}, "36": {"stimulus": 21, "trial": 36, "rt": 733, "response": "Alpha"}, "35": {"stimulus": 13, "trial": 35, "rt": 879, "response": "Alpha"}, "34": {"stimulus": 49, "trial": 34, "rt": 720, "response": "Beta"}, "33": {"stimulus": 5, "trial": 33, "rt": 522, "response": "Alpha"}, "55": {"stimulus": 51, "trial": 55, "rt": 451, "response": "Beta"}, "74": {"stimulus": 30, "trial": 74, "rt": 706, "response": "Beta"}, "32": {"stimulus": 20, "trial": 32, "rt": 666, "response": "Alpha"}, "57": {"stimulus": 73, "trial": 57, "rt": 376, "response": "Beta"}, "50": {"stimulus": 57, "trial": 50, "rt": 403, "response": "Beta"}}}03, "response": "Beta"}}}