{"generation": {"1": {"stimulus": 8, "trial": 1, "rt": 8713}, "0": {"stimulus": 80, "trial": 0, "rt": 15578}, "3": {"stimulus": 5, "trial": 3, "rt": 5034}, "2": {"stimulus": 76, "trial": 2, "rt": 16522}}, "info": {"finish": 1488822520221, "participant": 106, "exposed": true, "lab": false, "start": 1488822247388, "counterbalance": 4, "condition": "XOR", "browser": {"platform": "Win32", "userAgent": "Mozilla/5.0 (Windows NT 10.0; WOW64) AppleWebKit/537.36 (KHTML, like Gecko) Chrome/56.0.2924.87 Safari/537.36"}}, "experiment": {"Paradigm": "TACL", "Stimuli": "Size-Color Squares", "Experiment": "Generating-Categories"}, "observation": {"11": {"stimulus": 80, "trial": 11, "rt": 1013}, "10": {"stimulus": 70, "trial": 10, "rt": 1001}, "1": {"stimulus": 0, "trial": 1, "rt": 2386}, "0": {"stimulus": 80, "trial": 0, "rt": 2520}, "3": {"stimulus": 10, "trial": 3, "rt": 1719}, "2": {"stimulus": 70, "trial": 2, "rt": 2283}, "5": {"stimulus": 10, "trial": 5, "rt": 1321}, "4": {"stimulus": 0, "trial": 4, "rt": 1891}, "7": {"stimulus": 80, "trial": 7, "rt": 1065}, "6": {"stimulus": 70, "trial": 6, "rt": 1353}, "9": {"stimulus": 10, "trial": 9, "rt": 1355}, "8": {"stimulus": 0, "trial": 8, "rt": 1025}}, "generalization": {"56": {"stimulus": 51, "trial": 56, "rt": 915, "response": "Beta"}, "77": {"stimulus": 36, "trial": 77, "rt": 3783, "response": "Beta"}, "54": {"stimulus": 3, "trial": 54, "rt": 787, "response": "Beta"}, "42": {"stimulus": 52, "trial": 42, "rt": 4632, "response": "Alpha"}, "48": {"stimulus": 20, "trial": 48, "rt": 1883, "response": "Beta"}, "43": {"stimulus": 69, "trial": 43, "rt": 1102, "response": "Beta"}, "60": {"stimulus": 16, "trial": 60, "rt": 1034, "response": "Alpha"}, "61": {"stimulus": 71, "trial": 61, "rt": 1064, "response": "Beta"}, "62": {"stimulus": 48, "trial": 62, "rt": 1018, "response": "Beta"}, "63": {"stimulus": 32, "trial": 63, "rt": 3315, "response": "Beta"}, "64": {"stimulus": 19, "trial": 64, "rt": 1543, "response": "Beta"}, "49": {"stimulus": 9, "trial": 49, "rt": 1219, "response": "Alpha"}, "66": {"stimulus": 78, "trial": 66, "rt": 1201, "response": "Beta"}, "67": {"stimulus": 45, "trial": 67, "rt": 690, "response": "Beta"}, "68": {"stimulus": 49, "trial": 68, "rt": 650, "response": "Beta"}, "69": {"stimulus": 40, "trial": 69, "rt": 651, "response": "Beta"}, "80": {"stimulus": 76, "trial": 80, "rt": 1596, "response": "Beta"}, "52": {"stimulus": 57, "trial": 52, "rt": 1074, "response": "Beta"}, "53": {"stimulus": 7, "trial": 53, "rt": 1054, "response": "Alpha"}, "24": {"stimulus": 77, "trial": 24, "rt": 2363, "response": "Beta"}, "25": {"stimulus": 17, "trial": 25, "rt": 1137, "response": "Alpha"}, "26": {"stimulus": 72, "trial": 26, "rt": 2571, "response": "Beta"}, "27": {"stimulus": 68, "trial": 27, "rt": 3522, "response": "Beta"}, "20": {"stimulus": 47, "trial": 20, "rt": 1627, "response": "Beta"}, "21": {"stimulus": 54, "trial": 21, "rt": 939, "response": "Beta"}, "22": {"stimulus": 27, "trial": 22, "rt": 1331, "response": "Alpha"}, "23": {"stimulus": 73, "trial": 23, "rt": 804, "response": "Beta"}, "46": {"stimulus": 67, "trial": 46, "rt": 2080, "response": "Beta"}, "47": {"stimulus": 23, "trial": 47, "rt": 762, "response": "Beta"}, "44": {"stimulus": 2, "trial": 44, "rt": 1127, "response": "Alpha"}, "45": {"stimulus": 1, "trial": 45, "rt": 965, "response": "Alpha"}, "28": {"stimulus": 10, "trial": 28, "rt": 1067, "response": "Alpha"}, "29": {"stimulus": 42, "trial": 29, "rt": 4337, "response": "Beta"}, "40": {"stimulus": 31, "trial": 40, "rt": 1633, "response": "Alpha"}, "41": {"stimulus": 64, "trial": 41, "rt": 1097, "response": "Beta"}, "1": {"stimulus": 75, "trial": 1, "rt": 1261, "response": "Beta"}, "0": {"stimulus": 34, "trial": 0, "rt": 2627, "response": "Alpha"}, "3": {"stimulus": 6, "trial": 3, "rt": 2970, "response": "Alpha"}, "2": {"stimulus": 30, "trial": 2, "rt": 771, "response": "Beta"}, "5": {"stimulus": 29, "trial": 5, "rt": 1008, "response": "Beta"}, "4": {"stimulus": 38, "trial": 4, "rt": 2036, "response": "Beta"}, "7": {"stimulus": 61, "trial": 7, "rt": 1347, "response": "Alpha"}, "6": {"stimulus": 44, "trial": 6, "rt": 1738, "response": "Alpha"}, "9": {"stimulus": 41, "trial": 9, "rt": 2988, "response": "Beta"}, "8": {"stimulus": 62, "trial": 8, "rt": 2841, "response": "Beta"}, "78": {"stimulus": 53, "trial": 78, "rt": 2490, "response": "Beta"}, "51": {"stimulus": 65, "trial": 51, "rt": 1034, "response": "Beta"}, "39": {"stimulus": 11, "trial": 39, "rt": 1144, "response": "Alpha"}, "65": {"stimulus": 21, "trial": 65, "rt": 954, "response": "Beta"}, "76": {"stimulus": 28, "trial": 76, "rt": 1735, "response": "Beta"}, "75": {"stimulus": 14, "trial": 75, "rt": 1499, "response": "Alpha"}, "38": {"stimulus": 66, "trial": 38, "rt": 1434, "response": "Beta"}, "73": {"stimulus": 80, "trial": 73, "rt": 1201, "response": "Beta"}, "72": {"stimulus": 12, "trial": 72, "rt": 1971, "response": "Beta"}, "71": {"stimulus": 5, "trial": 71, "rt": 1737, "response": "Beta"}, "70": {"stimulus": 8, "trial": 70, "rt": 867, "response": "Alpha"}, "59": {"stimulus": 24, "trial": 59, "rt": 1041, "response": "Alpha"}, "79": {"stimulus": 55, "trial": 79, "rt": 850, "response": "Beta"}, "58": {"stimulus": 15, "trial": 58, "rt": 898, "response": "Alpha"}, "11": {"stimulus": 35, "trial": 11, "rt": 2136, "response": "Alpha"}, "10": {"stimulus": 59, "trial": 10, "rt": 698, "response": "Beta"}, "13": {"stimulus": 50, "trial": 13, "rt": 866, "response": "Beta"}, "12": {"stimulus": 33, "trial": 12, "rt": 1177, "response": "Beta"}, "15": {"stimulus": 70, "trial": 15, "rt": 3769, "response": "Beta"}, "14": {"stimulus": 74, "trial": 14, "rt": 2755, "response": "Beta"}, "17": {"stimulus": 4, "trial": 17, "rt": 1049, "response": "Alpha"}, "16": {"stimulus": 63, "trial": 16, "rt": 895, "response": "Beta"}, "19": {"stimulus": 43, "trial": 19, "rt": 1761, "response": "Alpha"}, "18": {"stimulus": 56, "trial": 18, "rt": 2391, "response": "Beta"}, "31": {"stimulus": 39, "trial": 31, "rt": 1337, "response": "Beta"}, "30": {"stimulus": 13, "trial": 30, "rt": 1123, "response": "Beta"}, "37": {"stimulus": 79, "trial": 37, "rt": 1081, "response": "Beta"}, "36": {"stimulus": 60, "trial": 36, "rt": 1258, "response": "Alpha"}, "35": {"stimulus": 58, "trial": 35, "rt": 1875, "response": "Beta"}, "34": {"stimulus": 37, "trial": 34, "rt": 1483, "response": "Beta"}, "33": {"stimulus": 46, "trial": 33, "rt": 1282, "response": "Beta"}, "55": {"stimulus": 18, "trial": 55, "rt": 1725, "response": "Beta"}, "74": {"stimulus": 25, "trial": 74, "rt": 1730, "response": "Beta"}, "32": {"stimulus": 0, "trial": 32, "rt": 809, "response": "Alpha"}, "57": {"stimulus": 22, "trial": 57, "rt": 1369, "response": "Beta"}, "50": {"stimulus": 26, "trial": 50, "rt": 1737, "response": "Alpha"}}}