{"generation": {"1": {"stimulus": 72, "trial": 1, "rt": 11074}, "0": {"stimulus": 34, "trial": 0, "rt": 11227}, "3": {"stimulus": 73, "trial": 3, "rt": 8858}, "2": {"stimulus": 8, "trial": 2, "rt": 12379}}, "info": {"finish": 1488822489078, "participant": 107, "exposed": true, "lab": false, "start": 1488822175238, "counterbalance": 1, "condition": "XOR", "browser": {"platform": "Win32", "userAgent": "Mozilla/5.0 (Windows NT 10.0; WOW64) AppleWebKit/537.36 (KHTML, like Gecko) Chrome/56.0.2924.87 Safari/537.36"}}, "experiment": {"Paradigm": "TACL", "Stimuli": "Size-Color Squares", "Experiment": "Generating-Categories"}, "observation": {"11": {"stimulus": 10, "trial": 11, "rt": 1203}, "10": {"stimulus": 80, "trial": 10, "rt": 1795}, "1": {"stimulus": 0, "trial": 1, "rt": 2042}, "0": {"stimulus": 10, "trial": 0, "rt": 2087}, "3": {"stimulus": 80, "trial": 3, "rt": 1546}, "2": {"stimulus": 70, "trial": 2, "rt": 2244}, "5": {"stimulus": 10, "trial": 5, "rt": 1586}, "4": {"stimulus": 0, "trial": 4, "rt": 2556}, "7": {"stimulus": 80, "trial": 7, "rt": 1170}, "6": {"stimulus": 70, "trial": 6, "rt": 2026}, "9": {"stimulus": 0, "trial": 9, "rt": 1476}, "8": {"stimulus": 70, "trial": 8, "rt": 1130}}, "generalization": {"56": {"stimulus": 7, "trial": 56, "rt": 1082, "response": "Beta"}, "77": {"stimulus": 21, "trial": 77, "rt": 875, "response": "Beta"}, "54": {"stimulus": 56, "trial": 54, "rt": 4274, "response": "Beta"}, "42": {"stimulus": 33, "trial": 42, "rt": 739, "response": "Beta"}, "48": {"stimulus": 45, "trial": 48, "rt": 1547, "response": "Beta"}, "43": {"stimulus": 53, "trial": 43, "rt": 739, "response": "Beta"}, "60": {"stimulus": 61, "trial": 60, "rt": 1818, "response": "Alpha"}, "61": {"stimulus": 55, "trial": 61, "rt": 1882, "response": "Beta"}, "62": {"stimulus": 36, "trial": 62, "rt": 2962, "response": "Alpha"}, "63": {"stimulus": 77, "trial": 63, "rt": 987, "response": "Alpha"}, "64": {"stimulus": 0, "trial": 64, "rt": 786, "response": "Alpha"}, "49": {"stimulus": 5, "trial": 49, "rt": 1539, "response": "Beta"}, "66": {"stimulus": 51, "trial": 66, "rt": 2427, "response": "Beta"}, "67": {"stimulus": 27, "trial": 67, "rt": 1642, "response": "Alpha"}, "68": {"stimulus": 19, "trial": 68, "rt": 2010, "response": "Alpha"}, "69": {"stimulus": 3, "trial": 69, "rt": 1626, "response": "Beta"}, "80": {"stimulus": 23, "trial": 80, "rt": 1332, "response": "Beta"}, "52": {"stimulus": 73, "trial": 52, "rt": 1708, "response": "Beta"}, "53": {"stimulus": 37, "trial": 53, "rt": 2316, "response": "Alpha"}, "24": {"stimulus": 12, "trial": 24, "rt": 3995, "response": "Beta"}, "25": {"stimulus": 64, "trial": 25, "rt": 1531, "response": "Beta"}, "26": {"stimulus": 67, "trial": 26, "rt": 1771, "response": "Alpha"}, "27": {"stimulus": 65, "trial": 27, "rt": 1563, "response": "Alpha"}, "20": {"stimulus": 59, "trial": 20, "rt": 1483, "response": "Alpha"}, "21": {"stimulus": 79, "trial": 21, "rt": 1059, "response": "Alpha"}, "22": {"stimulus": 69, "trial": 22, "rt": 1243, "response": "Alpha"}, "23": {"stimulus": 35, "trial": 23, "rt": 1459, "response": "Beta"}, "46": {"stimulus": 47, "trial": 46, "rt": 1787, "response": "Beta"}, "47": {"stimulus": 63, "trial": 47, "rt": 2635, "response": "Beta"}, "44": {"stimulus": 46, "trial": 44, "rt": 5067, "response": "Alpha"}, "45": {"stimulus": 16, "trial": 45, "rt": 1347, "response": "Beta"}, "28": {"stimulus": 78, "trial": 28, "rt": 611, "response": "Alpha"}, "29": {"stimulus": 34, "trial": 29, "rt": 1355, "response": "Beta"}, "40": {"stimulus": 4, "trial": 40, "rt": 1299, "response": "Beta"}, "41": {"stimulus": 44, "trial": 41, "rt": 1179, "response": "Beta"}, "1": {"stimulus": 29, "trial": 1, "rt": 3403, "response": "Beta"}, "0": {"stimulus": 48, "trial": 0, "rt": 4258, "response": "Beta"}, "3": {"stimulus": 40, "trial": 3, "rt": 1675, "response": "Beta"}, "2": {"stimulus": 17, "trial": 2, "rt": 3978, "response": "Beta"}, "5": {"stimulus": 25, "trial": 5, "rt": 3067, "response": "Beta"}, "4": {"stimulus": 10, "trial": 4, "rt": 1091, "response": "Alpha"}, "7": {"stimulus": 28, "trial": 7, "rt": 2995, "response": "Alpha"}, "6": {"stimulus": 14, "trial": 6, "rt": 2442, "response": "Beta"}, "9": {"stimulus": 13, "trial": 9, "rt": 1338, "response": "Beta"}, "8": {"stimulus": 43, "trial": 8, "rt": 1867, "response": "Beta"}, "78": {"stimulus": 74, "trial": 78, "rt": 1868, "response": "Alpha"}, "51": {"stimulus": 76, "trial": 51, "rt": 2171, "response": "Alpha"}, "39": {"stimulus": 26, "trial": 39, "rt": 946, "response": "Beta"}, "65": {"stimulus": 22, "trial": 65, "rt": 1586, "response": "Beta"}, "76": {"stimulus": 42, "trial": 76, "rt": 1307, "response": "Beta"}, "75": {"stimulus": 31, "trial": 75, "rt": 1027, "response": "Beta"}, "38": {"stimulus": 8, "trial": 38, "rt": 1707, "response": "Beta"}, "73": {"stimulus": 50, "trial": 73, "rt": 2036, "response": "Beta"}, "72": {"stimulus": 15, "trial": 72, "rt": 1195, "response": "Beta"}, "71": {"stimulus": 66, "trial": 71, "rt": 1939, "response": "Alpha"}, "70": {"stimulus": 2, "trial": 70, "rt": 947, "response": "Beta"}, "59": {"stimulus": 30, "trial": 59, "rt": 1834, "response": "Beta"}, "79": {"stimulus": 70, "trial": 79, "rt": 586, "response": "Alpha"}, "58": {"stimulus": 60, "trial": 58, "rt": 650, "response": "Alpha"}, "11": {"stimulus": 49, "trial": 11, "rt": 6019, "response": "Alpha"}, "10": {"stimulus": 80, "trial": 10, "rt": 1859, "response": "Alpha"}, "13": {"stimulus": 41, "trial": 13, "rt": 3563, "response": "Beta"}, "12": {"stimulus": 54, "trial": 12, "rt": 1946, "response": "Beta"}, "15": {"stimulus": 18, "trial": 15, "rt": 1251, "response": "Alpha"}, "14": {"stimulus": 39, "trial": 14, "rt": 4915, "response": "Beta"}, "17": {"stimulus": 62, "trial": 17, "rt": 1506, "response": "Alpha"}, "16": {"stimulus": 32, "trial": 16, "rt": 1939, "response": "Beta"}, "19": {"stimulus": 75, "trial": 19, "rt": 4203, "response": "Alpha"}, "18": {"stimulus": 38, "trial": 18, "rt": 1875, "response": "Beta"}, "31": {"stimulus": 57, "trial": 31, "rt": 1132, "response": "Alpha"}, "30": {"stimulus": 68, "trial": 30, "rt": 2483, "response": "Alpha"}, "37": {"stimulus": 52, "trial": 37, "rt": 1883, "response": "Beta"}, "36": {"stimulus": 24, "trial": 36, "rt": 1491, "response": "Beta"}, "35": {"stimulus": 20, "trial": 35, "rt": 739, "response": "Alpha"}, "34": {"stimulus": 11, "trial": 34, "rt": 1763, "response": "Alpha"}, "33": {"stimulus": 72, "trial": 33, "rt": 2275, "response": "Beta"}, "55": {"stimulus": 1, "trial": 55, "rt": 1668, "response": "Alpha"}, "74": {"stimulus": 6, "trial": 74, "rt": 1322, "response": "Beta"}, "32": {"stimulus": 71, "trial": 32, "rt": 1075, "response": "Alpha"}, "57": {"stimulus": 58, "trial": 57, "rt": 3433, "response": "Alpha"}, "50": {"stimulus": 9, "trial": 50, "rt": 1322, "response": "Alpha"}}}