{"generation": {"1": {"stimulus": 68, "trial": 1, "rt": 7328}, "0": {"stimulus": 79, "trial": 0, "rt": 16288}, "3": {"stimulus": 78, "trial": 3, "rt": 7038}, "2": {"stimulus": 76, "trial": 2, "rt": 7669}}, "info": {"participant": 109, "exposed": true, "lab": false, "start": 1488822270413, "counterbalance": 1, "condition": "Cluster", "browser": {"platform": "Win32", "userAgent": "Mozilla/5.0 (Windows NT 10.0; Win64; x64) AppleWebKit/537.36 (KHTML, like Gecko) Chrome/56.0.2924.87 Safari/537.36"}}, "experiment": {"Paradigm": "TACL", "Stimuli": "Size-Color Squares", "Experiment": "Generating-Categories"}, "observation": {"11": {"stimulus": 34, "trial": 11, "rt": 2094}, "10": {"stimulus": 32, "trial": 10, "rt": 2213}, "1": {"stimulus": 14, "trial": 1, "rt": 2365}, "0": {"stimulus": 32, "trial": 0, "rt": 3989}, "3": {"stimulus": 16, "trial": 3, "rt": 3268}, "2": {"stimulus": 34, "trial": 2, "rt": 2182}, "5": {"stimulus": 14, "trial": 5, "rt": 1996}, "4": {"stimulus": 32, "trial": 4, "rt": 2211}, "7": {"stimulus": 16, "trial": 7, "rt": 2495}, "6": {"stimulus": 34, "trial": 6, "rt": 2759}, "9": {"stimulus": 14, "trial": 9, "rt": 2021}, "8": {"stimulus": 16, "trial": 8, "rt": 2133}}, "generalization": {"56": {"stimulus": 67, "trial": 56, "rt": 788, "response": "Beta"}, "77": {"stimulus": 52, "trial": 77, "rt": 1024, "response": "Alpha"}, "54": {"stimulus": 11, "trial": 54, "rt": 1223, "response": "Alpha"}, "42": {"stimulus": 24, "trial": 42, "rt": 889, "response": "Alpha"}, "48": {"stimulus": 38, "trial": 48, "rt": 956, "response": "Alpha"}, "43": {"stimulus": 71, "trial": 43, "rt": 976, "response": "Beta"}, "60": {"stimulus": 65, "trial": 60, "rt": 912, "response": "Beta"}, "61": {"stimulus": 80, "trial": 61, "rt": 1214, "response": "Beta"}, "62": {"stimulus": 50, "trial": 62, "rt": 1024, "response": "Alpha"}, "63": {"stimulus": 64, "trial": 63, "rt": 994, "response": "Beta"}, "64": {"stimulus": 42, "trial": 64, "rt": 1126, "response": "Alpha"}, "49": {"stimulus": 31, "trial": 49, "rt": 956, "response": "Alpha"}, "66": {"stimulus": 36, "trial": 66, "rt": 990, "response": "Alpha"}, "67": {"stimulus": 60, "trial": 67, "rt": 983, "response": "Beta"}, "68": {"stimulus": 1, "trial": 68, "rt": 907, "response": "Alpha"}, "69": {"stimulus": 51, "trial": 69, "rt": 1111, "response": "Alpha"}, "80": {"stimulus": 17, "trial": 80, "rt": 740, "response": "Alpha"}, "52": {"stimulus": 3, "trial": 52, "rt": 968, "response": "Alpha"}, "53": {"stimulus": 63, "trial": 53, "rt": 1510, "response": "Beta"}, "24": {"stimulus": 76, "trial": 24, "rt": 959, "response": "Beta"}, "25": {"stimulus": 66, "trial": 25, "rt": 860, "response": "Beta"}, "26": {"stimulus": 20, "trial": 26, "rt": 975, "response": "Alpha"}, "27": {"stimulus": 37, "trial": 27, "rt": 897, "response": "Alpha"}, "20": {"stimulus": 54, "trial": 20, "rt": 1230, "response": "Beta"}, "21": {"stimulus": 61, "trial": 21, "rt": 1058, "response": "Beta"}, "22": {"stimulus": 12, "trial": 22, "rt": 1084, "response": "Alpha"}, "23": {"stimulus": 78, "trial": 23, "rt": 1560, "response": "Beta"}, "46": {"stimulus": 53, "trial": 46, "rt": 1633, "response": "Alpha"}, "47": {"stimulus": 23, "trial": 47, "rt": 772, "response": "Alpha"}, "44": {"stimulus": 45, "trial": 44, "rt": 1327, "response": "Alpha"}, "45": {"stimulus": 69, "trial": 45, "rt": 1041, "response": "Beta"}, "28": {"stimulus": 58, "trial": 28, "rt": 1490, "response": "Beta"}, "29": {"stimulus": 32, "trial": 29, "rt": 1024, "response": "Alpha"}, "40": {"stimulus": 44, "trial": 40, "rt": 1195, "response": "Alpha"}, "41": {"stimulus": 9, "trial": 41, "rt": 1094, "response": "Alpha"}, "1": {"stimulus": 48, "trial": 1, "rt": 1939, "response": "Alpha"}, "0": {"stimulus": 40, "trial": 0, "rt": 2206, "response": "Alpha"}, "3": {"stimulus": 55, "trial": 3, "rt": 1215, "response": "Beta"}, "2": {"stimulus": 62, "trial": 2, "rt": 2436, "response": "Beta"}, "5": {"stimulus": 43, "trial": 5, "rt": 1165, "response": "Alpha"}, "4": {"stimulus": 46, "trial": 4, "rt": 1591, "response": "Alpha"}, "7": {"stimulus": 26, "trial": 7, "rt": 975, "response": "Alpha"}, "6": {"stimulus": 19, "trial": 6, "rt": 1174, "response": "Alpha"}, "9": {"stimulus": 16, "trial": 9, "rt": 1357, "response": "Alpha"}, "8": {"stimulus": 72, "trial": 8, "rt": 1135, "response": "Beta"}, "78": {"stimulus": 75, "trial": 78, "rt": 882, "response": "Beta"}, "51": {"stimulus": 39, "trial": 51, "rt": 841, "response": "Alpha"}, "39": {"stimulus": 47, "trial": 39, "rt": 1570, "response": "Alpha"}, "65": {"stimulus": 68, "trial": 65, "rt": 935, "response": "Beta"}, "76": {"stimulus": 56, "trial": 76, "rt": 912, "response": "Beta"}, "75": {"stimulus": 30, "trial": 75, "rt": 874, "response": "Alpha"}, "38": {"stimulus": 10, "trial": 38, "rt": 1007, "response": "Alpha"}, "73": {"stimulus": 14, "trial": 73, "rt": 1006, "response": "Alpha"}, "72": {"stimulus": 18, "trial": 72, "rt": 1295, "response": "Alpha"}, "71": {"stimulus": 57, "trial": 71, "rt": 1074, "response": "Beta"}, "70": {"stimulus": 6, "trial": 70, "rt": 859, "response": "Alpha"}, "59": {"stimulus": 33, "trial": 59, "rt": 1799, "response": "Alpha"}, "79": {"stimulus": 5, "trial": 79, "rt": 891, "response": "Alpha"}, "58": {"stimulus": 29, "trial": 58, "rt": 2142, "response": "Alpha"}, "11": {"stimulus": 27, "trial": 11, "rt": 1064, "response": "Alpha"}, "10": {"stimulus": 15, "trial": 10, "rt": 975, "response": "Alpha"}, "13": {"stimulus": 35, "trial": 13, "rt": 1384, "response": "Alpha"}, "12": {"stimulus": 34, "trial": 12, "rt": 961, "response": "Alpha"}, "15": {"stimulus": 74, "trial": 15, "rt": 1026, "response": "Beta"}, "14": {"stimulus": 79, "trial": 14, "rt": 1012, "response": "Beta"}, "17": {"stimulus": 13, "trial": 17, "rt": 922, "response": "Alpha"}, "16": {"stimulus": 25, "trial": 16, "rt": 1149, "response": "Alpha"}, "19": {"stimulus": 21, "trial": 19, "rt": 1657, "response": "Alpha"}, "18": {"stimulus": 70, "trial": 18, "rt": 1048, "response": "Beta"}, "31": {"stimulus": 0, "trial": 31, "rt": 1159, "response": "Alpha"}, "30": {"stimulus": 22, "trial": 30, "rt": 1095, "response": "Alpha"}, "37": {"stimulus": 77, "trial": 37, "rt": 871, "response": "Beta"}, "36": {"stimulus": 49, "trial": 36, "rt": 1105, "response": "Alpha"}, "35": {"stimulus": 2, "trial": 35, "rt": 823, "response": "Alpha"}, "34": {"stimulus": 7, "trial": 34, "rt": 1050, "response": "Alpha"}, "33": {"stimulus": 4, "trial": 33, "rt": 875, "response": "Alpha"}, "55": {"stimulus": 59, "trial": 55, "rt": 1045, "response": "Beta"}, "74": {"stimulus": 73, "trial": 74, "rt": 2118, "response": "Beta"}, "32": {"stimulus": 41, "trial": 32, "rt": 977, "response": "Alpha"}, "57": {"stimulus": 8, "trial": 57, "rt": 1084, "response": "Alpha"}, "50": {"stimulus": 28, "trial": 50, "rt": 818, "response": "Alpha"}}}8, "response": "Alpha"}}}