{"generation": {"1": {"stimulus": 25, "trial": 1, "rt": 10857}, "0": {"stimulus": 62, "trial": 0, "rt": 42203}, "3": {"stimulus": 3, "trial": 3, "rt": 7614}, "2": {"stimulus": 12, "trial": 2, "rt": 18859}}, "info": {"finish": 1488822763691, "participant": 111, "exposed": true, "lab": false, "start": 1488822427234, "counterbalance": 2, "condition": "XOR", "browser": {"platform": "Win32", "userAgent": "Mozilla/5.0 (Windows NT 5.1) AppleWebKit/537.36 (KHTML, like Gecko) Chrome/49.0.2623.112 Safari/537.36"}}, "experiment": {"Paradigm": "TACL", "Stimuli": "Size-Color Squares", "Experiment": "Generating-Categories"}, "observation": {"11": {"stimulus": 70, "trial": 11, "rt": 656}, "10": {"stimulus": 0, "trial": 10, "rt": 744}, "1": {"stimulus": 70, "trial": 1, "rt": 1657}, "0": {"stimulus": 10, "trial": 0, "rt": 5779}, "3": {"stimulus": 80, "trial": 3, "rt": 1200}, "2": {"stimulus": 0, "trial": 2, "rt": 1337}, "5": {"stimulus": 0, "trial": 5, "rt": 1194}, "4": {"stimulus": 70, "trial": 4, "rt": 1166}, "7": {"stimulus": 10, "trial": 7, "rt": 858}, "6": {"stimulus": 80, "trial": 6, "rt": 902}, "9": {"stimulus": 10, "trial": 9, "rt": 1071}, "8": {"stimulus": 80, "trial": 8, "rt": 1296}}, "generalization": {"56": {"stimulus": 8, "trial": 56, "rt": 3012, "response": "Alpha"}, "77": {"stimulus": 54, "trial": 77, "rt": 1165, "response": "Beta"}, "54": {"stimulus": 17, "trial": 54, "rt": 1735, "response": "Alpha"}, "42": {"stimulus": 50, "trial": 42, "rt": 872, "response": "Beta"}, "48": {"stimulus": 21, "trial": 48, "rt": 2295, "response": "Alpha"}, "43": {"stimulus": 69, "trial": 43, "rt": 1101, "response": "Beta"}, "60": {"stimulus": 71, "trial": 60, "rt": 1416, "response": "Beta"}, "61": {"stimulus": 74, "trial": 61, "rt": 1243, "response": "Beta"}, "62": {"stimulus": 3, "trial": 62, "rt": 1478, "response": "Alpha"}, "63": {"stimulus": 14, "trial": 63, "rt": 890, "response": "Alpha"}, "64": {"stimulus": 11, "trial": 64, "rt": 921, "response": "Alpha"}, "49": {"stimulus": 67, "trial": 49, "rt": 1450, "response": "Beta"}, "66": {"stimulus": 27, "trial": 66, "rt": 976, "response": "Alpha"}, "67": {"stimulus": 5, "trial": 67, "rt": 1191, "response": "Alpha"}, "68": {"stimulus": 29, "trial": 68, "rt": 2074, "response": "Beta"}, "69": {"stimulus": 36, "trial": 69, "rt": 1024, "response": "Beta"}, "80": {"stimulus": 61, "trial": 80, "rt": 853, "response": "Beta"}, "52": {"stimulus": 78, "trial": 52, "rt": 1521, "response": "Beta"}, "53": {"stimulus": 73, "trial": 53, "rt": 2002, "response": "Alpha"}, "24": {"stimulus": 75, "trial": 24, "rt": 1431, "response": "Alpha"}, "25": {"stimulus": 76, "trial": 25, "rt": 856, "response": "Alpha"}, "26": {"stimulus": 53, "trial": 26, "rt": 1216, "response": "Beta"}, "27": {"stimulus": 15, "trial": 27, "rt": 1630, "response": "Alpha"}, "20": {"stimulus": 6, "trial": 20, "rt": 1218, "response": "Alpha"}, "21": {"stimulus": 26, "trial": 21, "rt": 1385, "response": "Alpha"}, "22": {"stimulus": 43, "trial": 22, "rt": 1611, "response": "Beta"}, "23": {"stimulus": 40, "trial": 23, "rt": 813, "response": "Beta"}, "46": {"stimulus": 72, "trial": 46, "rt": 1685, "response": "Beta"}, "47": {"stimulus": 56, "trial": 47, "rt": 1512, "response": "Alpha"}, "44": {"stimulus": 33, "trial": 44, "rt": 1928, "response": "Alpha"}, "45": {"stimulus": 2, "trial": 45, "rt": 1795, "response": "Alpha"}, "28": {"stimulus": 25, "trial": 28, "rt": 1149, "response": "Alpha"}, "29": {"stimulus": 62, "trial": 29, "rt": 1415, "response": "Alpha"}, "40": {"stimulus": 58, "trial": 40, "rt": 930, "response": "Beta"}, "41": {"stimulus": 48, "trial": 41, "rt": 978, "response": "Beta"}, "1": {"stimulus": 37, "trial": 1, "rt": 2448, "response": "Beta"}, "0": {"stimulus": 64, "trial": 0, "rt": 3885, "response": "Alpha"}, "3": {"stimulus": 59, "trial": 3, "rt": 1257, "response": "Alpha"}, "2": {"stimulus": 32, "trial": 2, "rt": 764, "response": "Beta"}, "5": {"stimulus": 38, "trial": 5, "rt": 2249, "response": "Alpha"}, "4": {"stimulus": 66, "trial": 4, "rt": 1345, "response": "Alpha"}, "7": {"stimulus": 18, "trial": 7, "rt": 1942, "response": "Beta"}, "6": {"stimulus": 65, "trial": 6, "rt": 1782, "response": "Alpha"}, "9": {"stimulus": 44, "trial": 9, "rt": 1473, "response": "Alpha"}, "8": {"stimulus": 49, "trial": 8, "rt": 1195, "response": "Beta"}, "78": {"stimulus": 68, "trial": 78, "rt": 1348, "response": "Beta"}, "51": {"stimulus": 13, "trial": 51, "rt": 968, "response": "Alpha"}, "39": {"stimulus": 46, "trial": 39, "rt": 1812, "response": "Beta"}, "65": {"stimulus": 19, "trial": 65, "rt": 1062, "response": "Alpha"}, "76": {"stimulus": 52, "trial": 76, "rt": 824, "response": "Beta"}, "75": {"stimulus": 42, "trial": 75, "rt": 1708, "response": "Beta"}, "38": {"stimulus": 10, "trial": 38, "rt": 1624, "response": "Alpha"}, "73": {"stimulus": 9, "trial": 73, "rt": 989, "response": "Alpha"}, "72": {"stimulus": 24, "trial": 72, "rt": 1687, "response": "Alpha"}, "71": {"stimulus": 47, "trial": 71, "rt": 862, "response": "Beta"}, "70": {"stimulus": 63, "trial": 70, "rt": 1179, "response": "Beta"}, "59": {"stimulus": 23, "trial": 59, "rt": 1838, "response": "Alpha"}, "79": {"stimulus": 55, "trial": 79, "rt": 935, "response": "Beta"}, "58": {"stimulus": 79, "trial": 58, "rt": 1298, "response": "Beta"}, "11": {"stimulus": 34, "trial": 11, "rt": 1119, "response": "Beta"}, "10": {"stimulus": 51, "trial": 10, "rt": 2074, "response": "Beta"}, "13": {"stimulus": 30, "trial": 13, "rt": 2171, "response": "Beta"}, "12": {"stimulus": 28, "trial": 12, "rt": 1537, "response": "Alpha"}, "15": {"stimulus": 39, "trial": 15, "rt": 1915, "response": "Alpha"}, "14": {"stimulus": 60, "trial": 14, "rt": 2230, "response": "Beta"}, "17": {"stimulus": 1, "trial": 17, "rt": 903, "response": "Alpha"}, "16": {"stimulus": 12, "trial": 16, "rt": 2308, "response": "Alpha"}, "19": {"stimulus": 4, "trial": 19, "rt": 1705, "response": "Alpha"}, "18": {"stimulus": 31, "trial": 18, "rt": 1938, "response": "Beta"}, "31": {"stimulus": 20, "trial": 31, "rt": 1690, "response": "Alpha"}, "30": {"stimulus": 77, "trial": 30, "rt": 1763, "response": "Beta"}, "37": {"stimulus": 41, "trial": 37, "rt": 1122, "response": "Beta"}, "36": {"stimulus": 70, "trial": 36, "rt": 1509, "response": "Beta"}, "35": {"stimulus": 0, "trial": 35, "rt": 2634, "response": "Alpha"}, "34": {"stimulus": 45, "trial": 34, "rt": 1713, "response": "Beta"}, "33": {"stimulus": 7, "trial": 33, "rt": 977, "response": "Alpha"}, "55": {"stimulus": 57, "trial": 55, "rt": 1895, "response": "Beta"}, "74": {"stimulus": 22, "trial": 74, "rt": 1796, "response": "Alpha"}, "32": {"stimulus": 16, "trial": 32, "rt": 1052, "response": "Alpha"}, "57": {"stimulus": 80, "trial": 57, "rt": 2401, "response": "Alpha"}, "50": {"stimulus": 35, "trial": 50, "rt": 2564, "response": "Alpha"}}}