{"generation": {"1": {"stimulus": 32, "trial": 1, "rt": 19740}, "0": {"stimulus": 2, "trial": 0, "rt": 29064}, "3": {"stimulus": 49, "trial": 3, "rt": 15555}, "2": {"stimulus": 53, "trial": 2, "rt": 17663}}, "info": {"participant": 113, "exposed": true, "lab": false, "start": 1488822309755, "counterbalance": 1, "condition": "XOR", "browser": {"platform": "Win32", "userAgent": "Mozilla/5.0 (Windows NT 6.1) AppleWebKit/537.36 (KHTML, like Gecko) Chrome/56.0.2924.87 Safari/537.36"}}, "experiment": {"Paradigm": "TACL", "Stimuli": "Size-Color Squares", "Experiment": "Generating-Categories"}, "observation": {"11": {"stimulus": 10, "trial": 11, "rt": 1739}, "10": {"stimulus": 0, "trial": 10, "rt": 2527}, "1": {"stimulus": 10, "trial": 1, "rt": 3845}, "0": {"stimulus": 80, "trial": 0, "rt": 3434}, "3": {"stimulus": 70, "trial": 3, "rt": 5344}, "2": {"stimulus": 0, "trial": 2, "rt": 3165}, "5": {"stimulus": 0, "trial": 5, "rt": 2808}, "4": {"stimulus": 10, "trial": 4, "rt": 2965}, "7": {"stimulus": 80, "trial": 7, "rt": 2787}, "6": {"stimulus": 70, "trial": 6, "rt": 2917}, "9": {"stimulus": 70, "trial": 9, "rt": 2996}, "8": {"stimulus": 80, "trial": 8, "rt": 1878}}, "generalization": {"56": {"stimulus": 23, "trial": 56, "rt": 1898, "response": "Alpha"}, "77": {"stimulus": 32, "trial": 77, "rt": 1327, "response": "Beta"}, "54": {"stimulus": 12, "trial": 54, "rt": 868, "response": "Beta"}, "42": {"stimulus": 71, "trial": 42, "rt": 1777, "response": "Alpha"}, "48": {"stimulus": 41, "trial": 48, "rt": 1699, "response": "Alpha"}, "43": {"stimulus": 59, "trial": 43, "rt": 3776, "response": "Alpha"}, "60": {"stimulus": 73, "trial": 60, "rt": 1027, "response": "Alpha"}, "61": {"stimulus": 60, "trial": 61, "rt": 4895, "response": "Alpha"}, "62": {"stimulus": 16, "trial": 62, "rt": 1886, "response": "Beta"}, "63": {"stimulus": 69, "trial": 63, "rt": 1057, "response": "Alpha"}, "64": {"stimulus": 77, "trial": 64, "rt": 937, "response": "Alpha"}, "49": {"stimulus": 62, "trial": 49, "rt": 2116, "response": "Alpha"}, "66": {"stimulus": 4, "trial": 66, "rt": 1227, "response": "Beta"}, "67": {"stimulus": 78, "trial": 67, "rt": 1155, "response": "Alpha"}, "68": {"stimulus": 37, "trial": 68, "rt": 1247, "response": "Alpha"}, "69": {"stimulus": 36, "trial": 69, "rt": 937, "response": "Alpha"}, "80": {"stimulus": 18, "trial": 80, "rt": 959, "response": "Beta"}, "52": {"stimulus": 80, "trial": 52, "rt": 1478, "response": "Alpha"}, "53": {"stimulus": 9, "trial": 53, "rt": 2566, "response": "Beta"}, "24": {"stimulus": 75, "trial": 24, "rt": 1019, "response": "Alpha"}, "25": {"stimulus": 48, "trial": 25, "rt": 6283, "response": "Beta"}, "26": {"stimulus": 45, "trial": 26, "rt": 1339, "response": "Beta"}, "27": {"stimulus": 57, "trial": 27, "rt": 3256, "response": "Beta"}, "20": {"stimulus": 39, "trial": 20, "rt": 1546, "response": "Alpha"}, "21": {"stimulus": 30, "trial": 21, "rt": 1309, "response": "Alpha"}, "22": {"stimulus": 25, "trial": 22, "rt": 1947, "response": "Alpha"}, "23": {"stimulus": 74, "trial": 23, "rt": 1617, "response": "Alpha"}, "46": {"stimulus": 11, "trial": 46, "rt": 2207, "response": "Beta"}, "47": {"stimulus": 34, "trial": 47, "rt": 1628, "response": "Alpha"}, "44": {"stimulus": 53, "trial": 44, "rt": 1968, "response": "Beta"}, "45": {"stimulus": 42, "trial": 45, "rt": 1029, "response": "Beta"}, "28": {"stimulus": 6, "trial": 28, "rt": 2117, "response": "Beta"}, "29": {"stimulus": 67, "trial": 29, "rt": 1637, "response": "Alpha"}, "40": {"stimulus": 21, "trial": 40, "rt": 1009, "response": "Beta"}, "41": {"stimulus": 7, "trial": 41, "rt": 1108, "response": "Beta"}, "1": {"stimulus": 63, "trial": 1, "rt": 6224, "response": "Alpha"}, "0": {"stimulus": 5, "trial": 0, "rt": 4814, "response": "Beta"}, "3": {"stimulus": 56, "trial": 3, "rt": 2127, "response": "Beta"}, "2": {"stimulus": 54, "trial": 2, "rt": 2887, "response": "Beta"}, "5": {"stimulus": 33, "trial": 5, "rt": 9542, "response": "Alpha"}, "4": {"stimulus": 68, "trial": 4, "rt": 1877, "response": "Alpha"}, "7": {"stimulus": 27, "trial": 7, "rt": 1687, "response": "Alpha"}, "6": {"stimulus": 64, "trial": 6, "rt": 2846, "response": "Alpha"}, "9": {"stimulus": 40, "trial": 9, "rt": 3246, "response": "Alpha"}, "8": {"stimulus": 72, "trial": 8, "rt": 3537, "response": "Alpha"}, "78": {"stimulus": 28, "trial": 78, "rt": 1118, "response": "Beta"}, "51": {"stimulus": 79, "trial": 51, "rt": 1377, "response": "Alpha"}, "39": {"stimulus": 13, "trial": 39, "rt": 1337, "response": "Beta"}, "65": {"stimulus": 17, "trial": 65, "rt": 2127, "response": "Beta"}, "76": {"stimulus": 55, "trial": 76, "rt": 1567, "response": "Alpha"}, "75": {"stimulus": 3, "trial": 75, "rt": 1079, "response": "Beta"}, "38": {"stimulus": 66, "trial": 38, "rt": 1238, "response": "Alpha"}, "73": {"stimulus": 38, "trial": 73, "rt": 2617, "response": "Alpha"}, "72": {"stimulus": 24, "trial": 72, "rt": 1078, "response": "Beta"}, "71": {"stimulus": 10, "trial": 71, "rt": 1518, "response": "Beta"}, "70": {"stimulus": 51, "trial": 70, "rt": 1489, "response": "Alpha"}, "59": {"stimulus": 46, "trial": 59, "rt": 5883, "response": "Beta"}, "79": {"stimulus": 0, "trial": 79, "rt": 2417, "response": "Beta"}, "58": {"stimulus": 15, "trial": 58, "rt": 988, "response": "Alpha"}, "11": {"stimulus": 26, "trial": 11, "rt": 1716, "response": "Beta"}, "10": {"stimulus": 52, "trial": 10, "rt": 2457, "response": "Alpha"}, "13": {"stimulus": 44, "trial": 13, "rt": 1899, "response": "Beta"}, "12": {"stimulus": 31, "trial": 12, "rt": 1547, "response": "Beta"}, "15": {"stimulus": 70, "trial": 15, "rt": 1568, "response": "Alpha"}, "14": {"stimulus": 20, "trial": 14, "rt": 2237, "response": "Beta"}, "17": {"stimulus": 49, "trial": 17, "rt": 1169, "response": "Beta"}, "16": {"stimulus": 50, "trial": 16, "rt": 6374, "response": "Beta"}, "19": {"stimulus": 61, "trial": 19, "rt": 3937, "response": "Alpha"}, "18": {"stimulus": 1, "trial": 18, "rt": 6055, "response": "Beta"}, "31": {"stimulus": 19, "trial": 31, "rt": 5194, "response": "Beta"}, "30": {"stimulus": 65, "trial": 30, "rt": 2354, "response": "Alpha"}, "37": {"stimulus": 47, "trial": 37, "rt": 3667, "response": "Alpha"}, "36": {"stimulus": 8, "trial": 36, "rt": 1547, "response": "Beta"}, "35": {"stimulus": 29, "trial": 35, "rt": 1119, "response": "Alpha"}, "34": {"stimulus": 22, "trial": 34, "rt": 1167, "response": "Alpha"}, "33": {"stimulus": 35, "trial": 33, "rt": 1709, "response": "Alpha"}, "55": {"stimulus": 58, "trial": 55, "rt": 3977, "response": "Beta"}, "74": {"stimulus": 76, "trial": 74, "rt": 1118, "response": "Alpha"}, "32": {"stimulus": 2, "trial": 32, "rt": 1379, "response": "Beta"}, "57": {"stimulus": 14, "trial": 57, "rt": 909, "response": "Alpha"}, "50": {"stimulus": 43, "trial": 50, "rt": 3386, "response": "Beta"}}}