{"generation": {"1": {"stimulus": 68, "trial": 1, "rt": 4259}, "0": {"stimulus": 64, "trial": 0, "rt": 13881}, "3": {"stimulus": 61, "trial": 3, "rt": 5614}, "2": {"stimulus": 71, "trial": 2, "rt": 8627}}, "info": {"finish": 1488822575938, "participant": 114, "exposed": true, "lab": false, "start": 1488822316101, "counterbalance": 6, "condition": "Cluster", "browser": {"platform": "Win32", "userAgent": "Mozilla/5.0 (Windows NT 10.0; WOW64) AppleWebKit/537.36 (KHTML, like Gecko) Chrome/56.0.2924.87 Safari/537.36"}}, "experiment": {"Paradigm": "TACL", "Stimuli": "Size-Color Squares", "Experiment": "Generating-Categories"}, "observation": {"11": {"stimulus": 34, "trial": 11, "rt": 1168}, "10": {"stimulus": 14, "trial": 10, "rt": 1081}, "1": {"stimulus": 32, "trial": 1, "rt": 1698}, "0": {"stimulus": 16, "trial": 0, "rt": 3511}, "3": {"stimulus": 34, "trial": 3, "rt": 1548}, "2": {"stimulus": 14, "trial": 2, "rt": 1269}, "5": {"stimulus": 14, "trial": 5, "rt": 1486}, "4": {"stimulus": 16, "trial": 4, "rt": 1436}, "7": {"stimulus": 34, "trial": 7, "rt": 1814}, "6": {"stimulus": 32, "trial": 6, "rt": 1554}, "9": {"stimulus": 16, "trial": 9, "rt": 1152}, "8": {"stimulus": 32, "trial": 8, "rt": 1539}}, "generalization": {"56": {"stimulus": 51, "trial": 56, "rt": 970, "response": "Beta"}, "77": {"stimulus": 34, "trial": 77, "rt": 917, "response": "Beta"}, "54": {"stimulus": 2, "trial": 54, "rt": 706, "response": "Alpha"}, "42": {"stimulus": 33, "trial": 42, "rt": 1569, "response": "Beta"}, "48": {"stimulus": 43, "trial": 48, "rt": 588, "response": "Beta"}, "43": {"stimulus": 54, "trial": 43, "rt": 906, "response": "Beta"}, "60": {"stimulus": 47, "trial": 60, "rt": 1174, "response": "Beta"}, "61": {"stimulus": 70, "trial": 61, "rt": 482, "response": "Beta"}, "62": {"stimulus": 75, "trial": 62, "rt": 760, "response": "Beta"}, "63": {"stimulus": 22, "trial": 63, "rt": 1145, "response": "Alpha"}, "64": {"stimulus": 62, "trial": 64, "rt": 1301, "response": "Beta"}, "49": {"stimulus": 65, "trial": 49, "rt": 498, "response": "Beta"}, "66": {"stimulus": 31, "trial": 66, "rt": 1155, "response": "Beta"}, "67": {"stimulus": 3, "trial": 67, "rt": 862, "response": "Alpha"}, "68": {"stimulus": 50, "trial": 68, "rt": 551, "response": "Beta"}, "69": {"stimulus": 14, "trial": 69, "rt": 486, "response": "Alpha"}, "80": {"stimulus": 39, "trial": 80, "rt": 495, "response": "Alpha"}, "52": {"stimulus": 13, "trial": 52, "rt": 858, "response": "Alpha"}, "53": {"stimulus": 5, "trial": 53, "rt": 689, "response": "Alpha"}, "24": {"stimulus": 25, "trial": 24, "rt": 814, "response": "Alpha"}, "25": {"stimulus": 53, "trial": 25, "rt": 666, "response": "Beta"}, "26": {"stimulus": 46, "trial": 26, "rt": 791, "response": "Beta"}, "27": {"stimulus": 24, "trial": 27, "rt": 731, "response": "Alpha"}, "20": {"stimulus": 72, "trial": 20, "rt": 625, "response": "Beta"}, "21": {"stimulus": 57, "trial": 21, "rt": 524, "response": "Beta"}, "22": {"stimulus": 37, "trial": 22, "rt": 1144, "response": "Alpha"}, "23": {"stimulus": 19, "trial": 23, "rt": 746, "response": "Alpha"}, "46": {"stimulus": 55, "trial": 46, "rt": 1021, "response": "Beta"}, "47": {"stimulus": 23, "trial": 47, "rt": 915, "response": "Alpha"}, "44": {"stimulus": 56, "trial": 44, "rt": 612, "response": "Beta"}, "45": {"stimulus": 8, "trial": 45, "rt": 875, "response": "Alpha"}, "28": {"stimulus": 68, "trial": 28, "rt": 483, "response": "Beta"}, "29": {"stimulus": 12, "trial": 29, "rt": 688, "response": "Alpha"}, "40": {"stimulus": 80, "trial": 40, "rt": 476, "response": "Beta"}, "41": {"stimulus": 59, "trial": 41, "rt": 495, "response": "Beta"}, "1": {"stimulus": 26, "trial": 1, "rt": 1061, "response": "Alpha"}, "0": {"stimulus": 38, "trial": 0, "rt": 2274, "response": "Alpha"}, "3": {"stimulus": 32, "trial": 3, "rt": 1787, "response": "Alpha"}, "2": {"stimulus": 36, "trial": 2, "rt": 633, "response": "Alpha"}, "5": {"stimulus": 10, "trial": 5, "rt": 498, "response": "Alpha"}, "4": {"stimulus": 0, "trial": 4, "rt": 1049, "response": "Alpha"}, "7": {"stimulus": 18, "trial": 7, "rt": 582, "response": "Alpha"}, "6": {"stimulus": 21, "trial": 6, "rt": 701, "response": "Alpha"}, "9": {"stimulus": 20, "trial": 9, "rt": 800, "response": "Alpha"}, "8": {"stimulus": 49, "trial": 8, "rt": 1206, "response": "Beta"}, "78": {"stimulus": 1, "trial": 78, "rt": 795, "response": "Alpha"}, "51": {"stimulus": 60, "trial": 51, "rt": 446, "response": "Beta"}, "39": {"stimulus": 78, "trial": 39, "rt": 784, "response": "Beta"}, "65": {"stimulus": 58, "trial": 65, "rt": 473, "response": "Beta"}, "76": {"stimulus": 66, "trial": 76, "rt": 634, "response": "Beta"}, "75": {"stimulus": 69, "trial": 75, "rt": 1637, "response": "Beta"}, "38": {"stimulus": 27, "trial": 38, "rt": 743, "response": "Alpha"}, "73": {"stimulus": 41, "trial": 73, "rt": 1361, "response": "Alpha"}, "72": {"stimulus": 64, "trial": 72, "rt": 489, "response": "Beta"}, "71": {"stimulus": 44, "trial": 71, "rt": 966, "response": "Beta"}, "70": {"stimulus": 17, "trial": 70, "rt": 797, "response": "Alpha"}, "59": {"stimulus": 9, "trial": 59, "rt": 797, "response": "Alpha"}, "79": {"stimulus": 28, "trial": 79, "rt": 652, "response": "Alpha"}, "58": {"stimulus": 61, "trial": 58, "rt": 848, "response": "Beta"}, "11": {"stimulus": 16, "trial": 11, "rt": 581, "response": "Alpha"}, "10": {"stimulus": 76, "trial": 10, "rt": 503, "response": "Beta"}, "13": {"stimulus": 29, "trial": 13, "rt": 748, "response": "Alpha"}, "12": {"stimulus": 67, "trial": 12, "rt": 493, "response": "Beta"}, "15": {"stimulus": 71, "trial": 15, "rt": 797, "response": "Beta"}, "14": {"stimulus": 6, "trial": 14, "rt": 769, "response": "Alpha"}, "17": {"stimulus": 63, "trial": 17, "rt": 802, "response": "Beta"}, "16": {"stimulus": 40, "trial": 16, "rt": 2348, "response": "Alpha"}, "19": {"stimulus": 52, "trial": 19, "rt": 550, "response": "Beta"}, "18": {"stimulus": 48, "trial": 18, "rt": 526, "response": "Beta"}, "31": {"stimulus": 11, "trial": 31, "rt": 692, "response": "Alpha"}, "30": {"stimulus": 74, "trial": 30, "rt": 1173, "response": "Beta"}, "37": {"stimulus": 15, "trial": 37, "rt": 784, "response": "Alpha"}, "36": {"stimulus": 79, "trial": 36, "rt": 582, "response": "Beta"}, "35": {"stimulus": 4, "trial": 35, "rt": 762, "response": "Alpha"}, "34": {"stimulus": 30, "trial": 34, "rt": 905, "response": "Alpha"}, "33": {"stimulus": 45, "trial": 33, "rt": 1666, "response": "Beta"}, "55": {"stimulus": 77, "trial": 55, "rt": 875, "response": "Beta"}, "74": {"stimulus": 42, "trial": 74, "rt": 734, "response": "Alpha"}, "32": {"stimulus": 7, "trial": 32, "rt": 731, "response": "Alpha"}, "57": {"stimulus": 35, "trial": 57, "rt": 411, "response": "Beta"}, "50": {"stimulus": 73, "trial": 50, "rt": 454, "response": "Beta"}}}