{"generation": {"1": {"stimulus": 45, "trial": 1, "rt": 8026}, "0": {"stimulus": 54, "trial": 0, "rt": 23022}, "3": {"stimulus": 55, "trial": 3, "rt": 8748}, "2": {"stimulus": 47, "trial": 2, "rt": 8117}}, "info": {"finish": 1488822578671, "participant": 116, "exposed": true, "lab": false, "start": 1488822317881, "counterbalance": 3, "condition": "XOR", "browser": {"platform": "MacIntel", "userAgent": "Mozilla/5.0 (Macintosh; Intel Mac OS X 10_12) AppleWebKit/602.1.50 (KHTML, like Gecko) Version/10.0 Safari/602.1.50"}}, "experiment": {"Paradigm": "TACL", "Stimuli": "Size-Color Squares", "Experiment": "Generating-Categories"}, "observation": {"11": {"stimulus": 10, "trial": 11, "rt": 1355}, "10": {"stimulus": 0, "trial": 10, "rt": 1291}, "1": {"stimulus": 10, "trial": 1, "rt": 2499}, "0": {"stimulus": 70, "trial": 0, "rt": 2809}, "3": {"stimulus": 0, "trial": 3, "rt": 2235}, "2": {"stimulus": 80, "trial": 2, "rt": 2318}, "5": {"stimulus": 80, "trial": 5, "rt": 1717}, "4": {"stimulus": 70, "trial": 4, "rt": 2341}, "7": {"stimulus": 0, "trial": 7, "rt": 1535}, "6": {"stimulus": 10, "trial": 6, "rt": 1641}, "9": {"stimulus": 70, "trial": 9, "rt": 1276}, "8": {"stimulus": 80, "trial": 8, "rt": 1274}}, "generalization": {"56": {"stimulus": 73, "trial": 56, "rt": 566, "response": "Alpha"}, "77": {"stimulus": 56, "trial": 77, "rt": 1533, "response": "Beta"}, "54": {"stimulus": 65, "trial": 54, "rt": 727, "response": "Alpha"}, "42": {"stimulus": 0, "trial": 42, "rt": 887, "response": "Alpha"}, "48": {"stimulus": 17, "trial": 48, "rt": 1319, "response": "Alpha"}, "43": {"stimulus": 33, "trial": 43, "rt": 1229, "response": "Alpha"}, "60": {"stimulus": 59, "trial": 60, "rt": 1107, "response": "Beta"}, "61": {"stimulus": 6, "trial": 61, "rt": 4206, "response": "Alpha"}, "62": {"stimulus": 68, "trial": 62, "rt": 1793, "response": "Alpha"}, "63": {"stimulus": 4, "trial": 63, "rt": 660, "response": "Alpha"}, "64": {"stimulus": 37, "trial": 64, "rt": 2561, "response": "Beta"}, "49": {"stimulus": 48, "trial": 49, "rt": 1267, "response": "Beta"}, "66": {"stimulus": 53, "trial": 66, "rt": 1580, "response": "Beta"}, "67": {"stimulus": 26, "trial": 67, "rt": 823, "response": "Alpha"}, "68": {"stimulus": 45, "trial": 68, "rt": 1615, "response": "Beta"}, "69": {"stimulus": 74, "trial": 69, "rt": 959, "response": "Alpha"}, "80": {"stimulus": 72, "trial": 80, "rt": 1025, "response": "Alpha"}, "52": {"stimulus": 66, "trial": 52, "rt": 1045, "response": "Alpha"}, "53": {"stimulus": 63, "trial": 53, "rt": 452, "response": "Alpha"}, "24": {"stimulus": 15, "trial": 24, "rt": 1012, "response": "Alpha"}, "25": {"stimulus": 60, "trial": 25, "rt": 1045, "response": "Beta"}, "26": {"stimulus": 38, "trial": 26, "rt": 2525, "response": "Beta"}, "27": {"stimulus": 5, "trial": 27, "rt": 19782, "response": "Alpha"}, "20": {"stimulus": 18, "trial": 20, "rt": 850, "response": "Alpha"}, "21": {"stimulus": 70, "trial": 21, "rt": 940, "response": "Alpha"}, "22": {"stimulus": 61, "trial": 22, "rt": 1759, "response": "Beta"}, "23": {"stimulus": 79, "trial": 23, "rt": 722, "response": "Alpha"}, "46": {"stimulus": 52, "trial": 46, "rt": 1141, "response": "Beta"}, "47": {"stimulus": 58, "trial": 47, "rt": 1652, "response": "Beta"}, "44": {"stimulus": 34, "trial": 44, "rt": 475, "response": "Alpha"}, "45": {"stimulus": 44, "trial": 45, "rt": 869, "response": "Beta"}, "28": {"stimulus": 49, "trial": 28, "rt": 1005, "response": "Beta"}, "29": {"stimulus": 46, "trial": 29, "rt": 901, "response": "Beta"}, "40": {"stimulus": 76, "trial": 40, "rt": 909, "response": "Alpha"}, "41": {"stimulus": 55, "trial": 41, "rt": 733, "response": "Alpha"}, "1": {"stimulus": 80, "trial": 1, "rt": 1454, "response": "Alpha"}, "0": {"stimulus": 71, "trial": 0, "rt": 3141, "response": "Alpha"}, "3": {"stimulus": 8, "trial": 3, "rt": 1213, "response": "Alpha"}, "2": {"stimulus": 24, "trial": 2, "rt": 2531, "response": "Alpha"}, "5": {"stimulus": 13, "trial": 5, "rt": 1039, "response": "Alpha"}, "4": {"stimulus": 21, "trial": 4, "rt": 1739, "response": "Alpha"}, "7": {"stimulus": 57, "trial": 7, "rt": 1108, "response": "Beta"}, "6": {"stimulus": 75, "trial": 6, "rt": 1103, "response": "Alpha"}, "9": {"stimulus": 19, "trial": 9, "rt": 846, "response": "Alpha"}, "8": {"stimulus": 29, "trial": 8, "rt": 1405, "response": "Alpha"}, "78": {"stimulus": 42, "trial": 78, "rt": 1475, "response": "Alpha"}, "51": {"stimulus": 22, "trial": 51, "rt": 492, "response": "Alpha"}, "39": {"stimulus": 3, "trial": 39, "rt": 677, "response": "Alpha"}, "65": {"stimulus": 30, "trial": 65, "rt": 836, "response": "Alpha"}, "76": {"stimulus": 47, "trial": 76, "rt": 1573, "response": "Beta"}, "75": {"stimulus": 78, "trial": 75, "rt": 2045, "response": "Alpha"}, "38": {"stimulus": 25, "trial": 38, "rt": 1038, "response": "Alpha"}, "73": {"stimulus": 62, "trial": 73, "rt": 1881, "response": "Beta"}, "72": {"stimulus": 67, "trial": 72, "rt": 509, "response": "Alpha"}, "71": {"stimulus": 77, "trial": 71, "rt": 1939, "response": "Alpha"}, "70": {"stimulus": 20, "trial": 70, "rt": 3352, "response": "Alpha"}, "59": {"stimulus": 11, "trial": 59, "rt": 1014, "response": "Alpha"}, "79": {"stimulus": 32, "trial": 79, "rt": 725, "response": "Alpha"}, "58": {"stimulus": 39, "trial": 58, "rt": 1431, "response": "Beta"}, "11": {"stimulus": 64, "trial": 11, "rt": 1035, "response": "Alpha"}, "10": {"stimulus": 41, "trial": 10, "rt": 1519, "response": "Alpha"}, "13": {"stimulus": 10, "trial": 13, "rt": 796, "response": "Alpha"}, "12": {"stimulus": 28, "trial": 12, "rt": 886, "response": "Alpha"}, "15": {"stimulus": 31, "trial": 15, "rt": 2221, "response": "Alpha"}, "14": {"stimulus": 50, "trial": 14, "rt": 975, "response": "Beta"}, "17": {"stimulus": 40, "trial": 17, "rt": 1261, "response": "Beta"}, "16": {"stimulus": 12, "trial": 16, "rt": 846, "response": "Alpha"}, "19": {"stimulus": 2, "trial": 19, "rt": 1103, "response": "Alpha"}, "18": {"stimulus": 36, "trial": 18, "rt": 988, "response": "Beta"}, "31": {"stimulus": 1, "trial": 31, "rt": 780, "response": "Alpha"}, "30": {"stimulus": 16, "trial": 30, "rt": 725, "response": "Alpha"}, "37": {"stimulus": 7, "trial": 37, "rt": 883, "response": "Alpha"}, "36": {"stimulus": 51, "trial": 36, "rt": 781, "response": "Beta"}, "35": {"stimulus": 27, "trial": 35, "rt": 1229, "response": "Alpha"}, "34": {"stimulus": 35, "trial": 34, "rt": 892, "response": "Alpha"}, "33": {"stimulus": 23, "trial": 33, "rt": 676, "response": "Alpha"}, "55": {"stimulus": 43, "trial": 55, "rt": 809, "response": "Alpha"}, "74": {"stimulus": 54, "trial": 74, "rt": 891, "response": "Beta"}, "32": {"stimulus": 14, "trial": 32, "rt": 1094, "response": "Alpha"}, "57": {"stimulus": 69, "trial": 57, "rt": 419, "response": "Alpha"}, "50": {"stimulus": 9, "trial": 50, "rt": 860, "response": "Alpha"}}}