{"generation": {"1": {"stimulus": 78, "trial": 1, "rt": 10522}, "0": {"stimulus": 80, "trial": 0, "rt": 17620}, "3": {"stimulus": 75, "trial": 3, "rt": 8470}, "2": {"stimulus": 74, "trial": 2, "rt": 9007}}, "info": {"finish": 1488822657672, "participant": 117, "exposed": true, "lab": false, "start": 1488822314271, "counterbalance": 1, "condition": "XOR", "browser": {"platform": "Win32", "userAgent": "Mozilla/5.0 (Windows NT 10.0; Win64; x64) AppleWebKit/537.36 (KHTML, like Gecko) Chrome/56.0.2924.87 Safari/537.36"}}, "experiment": {"Paradigm": "TACL", "Stimuli": "Size-Color Squares", "Experiment": "Generating-Categories"}, "observation": {"11": {"stimulus": 80, "trial": 11, "rt": 1604}, "10": {"stimulus": 10, "trial": 10, "rt": 1816}, "1": {"stimulus": 10, "trial": 1, "rt": 3436}, "0": {"stimulus": 80, "trial": 0, "rt": 4368}, "3": {"stimulus": 0, "trial": 3, "rt": 2028}, "2": {"stimulus": 70, "trial": 2, "rt": 2413}, "5": {"stimulus": 70, "trial": 5, "rt": 1897}, "4": {"stimulus": 80, "trial": 4, "rt": 2090}, "7": {"stimulus": 10, "trial": 7, "rt": 1979}, "6": {"stimulus": 0, "trial": 6, "rt": 1725}, "9": {"stimulus": 70, "trial": 9, "rt": 1736}, "8": {"stimulus": 0, "trial": 8, "rt": 1996}}, "generalization": {"56": {"stimulus": 60, "trial": 56, "rt": 1501, "response": "Alpha"}, "77": {"stimulus": 1, "trial": 77, "rt": 894, "response": "Alpha"}, "54": {"stimulus": 3, "trial": 54, "rt": 1002, "response": "Alpha"}, "42": {"stimulus": 22, "trial": 42, "rt": 986, "response": "Alpha"}, "48": {"stimulus": 63, "trial": 48, "rt": 1399, "response": "Beta"}, "43": {"stimulus": 65, "trial": 43, "rt": 1355, "response": "Beta"}, "60": {"stimulus": 68, "trial": 60, "rt": 1542, "response": "Beta"}, "61": {"stimulus": 39, "trial": 61, "rt": 1441, "response": "Alpha"}, "62": {"stimulus": 10, "trial": 62, "rt": 1409, "response": "Alpha"}, "63": {"stimulus": 28, "trial": 63, "rt": 27299, "response": "Alpha"}, "64": {"stimulus": 47, "trial": 64, "rt": 2453, "response": "Alpha"}, "49": {"stimulus": 76, "trial": 49, "rt": 1086, "response": "Beta"}, "66": {"stimulus": 11, "trial": 66, "rt": 893, "response": "Alpha"}, "67": {"stimulus": 80, "trial": 67, "rt": 1195, "response": "Beta"}, "68": {"stimulus": 53, "trial": 68, "rt": 3696, "response": "Alpha"}, "69": {"stimulus": 4, "trial": 69, "rt": 1124, "response": "Alpha"}, "80": {"stimulus": 7, "trial": 80, "rt": 1451, "response": "Alpha"}, "52": {"stimulus": 0, "trial": 52, "rt": 1136, "response": "Alpha"}, "53": {"stimulus": 18, "trial": 53, "rt": 1936, "response": "Alpha"}, "24": {"stimulus": 14, "trial": 24, "rt": 1621, "response": "Alpha"}, "25": {"stimulus": 77, "trial": 25, "rt": 1643, "response": "Beta"}, "26": {"stimulus": 33, "trial": 26, "rt": 5729, "response": "Alpha"}, "27": {"stimulus": 51, "trial": 27, "rt": 1481, "response": "Alpha"}, "20": {"stimulus": 30, "trial": 20, "rt": 2785, "response": "Alpha"}, "21": {"stimulus": 29, "trial": 21, "rt": 2390, "response": "Alpha"}, "22": {"stimulus": 43, "trial": 22, "rt": 4323, "response": "Alpha"}, "23": {"stimulus": 34, "trial": 23, "rt": 1491, "response": "Alpha"}, "46": {"stimulus": 12, "trial": 46, "rt": 861, "response": "Alpha"}, "47": {"stimulus": 35, "trial": 47, "rt": 1390, "response": "Alpha"}, "44": {"stimulus": 26, "trial": 44, "rt": 1187, "response": "Alpha"}, "45": {"stimulus": 23, "trial": 45, "rt": 1117, "response": "Alpha"}, "28": {"stimulus": 66, "trial": 28, "rt": 1510, "response": "Beta"}, "29": {"stimulus": 44, "trial": 29, "rt": 1915, "response": "Alpha"}, "40": {"stimulus": 9, "trial": 40, "rt": 1946, "response": "Alpha"}, "41": {"stimulus": 21, "trial": 41, "rt": 944, "response": "Alpha"}, "1": {"stimulus": 54, "trial": 1, "rt": 3532, "response": "Beta"}, "0": {"stimulus": 16, "trial": 0, "rt": 2547, "response": "Alpha"}, "3": {"stimulus": 75, "trial": 3, "rt": 1764, "response": "Beta"}, "2": {"stimulus": 52, "trial": 2, "rt": 3788, "response": "Alpha"}, "5": {"stimulus": 70, "trial": 5, "rt": 1481, "response": "Beta"}, "4": {"stimulus": 79, "trial": 4, "rt": 1562, "response": "Beta"}, "7": {"stimulus": 42, "trial": 7, "rt": 1329, "response": "Alpha"}, "6": {"stimulus": 8, "trial": 6, "rt": 1278, "response": "Alpha"}, "9": {"stimulus": 27, "trial": 9, "rt": 1400, "response": "Alpha"}, "8": {"stimulus": 13, "trial": 8, "rt": 834, "response": "Alpha"}, "78": {"stimulus": 32, "trial": 78, "rt": 915, "response": "Alpha"}, "51": {"stimulus": 59, "trial": 51, "rt": 3243, "response": "Beta"}, "39": {"stimulus": 15, "trial": 39, "rt": 1350, "response": "Alpha"}, "65": {"stimulus": 36, "trial": 65, "rt": 1400, "response": "Alpha"}, "76": {"stimulus": 24, "trial": 76, "rt": 1136, "response": "Alpha"}, "75": {"stimulus": 20, "trial": 75, "rt": 863, "response": "Alpha"}, "38": {"stimulus": 17, "trial": 38, "rt": 1482, "response": "Alpha"}, "73": {"stimulus": 2, "trial": 73, "rt": 953, "response": "Alpha"}, "72": {"stimulus": 25, "trial": 72, "rt": 924, "response": "Alpha"}, "71": {"stimulus": 62, "trial": 71, "rt": 1906, "response": "Alpha"}, "70": {"stimulus": 19, "trial": 70, "rt": 925, "response": "Alpha"}, "59": {"stimulus": 74, "trial": 59, "rt": 1400, "response": "Beta"}, "79": {"stimulus": 73, "trial": 79, "rt": 1207, "response": "Beta"}, "58": {"stimulus": 6, "trial": 58, "rt": 1177, "response": "Alpha"}, "11": {"stimulus": 72, "trial": 11, "rt": 1258, "response": "Beta"}, "10": {"stimulus": 46, "trial": 10, "rt": 1258, "response": "Alpha"}, "13": {"stimulus": 45, "trial": 13, "rt": 965, "response": "Alpha"}, "12": {"stimulus": 37, "trial": 12, "rt": 1563, "response": "Alpha"}, "15": {"stimulus": 67, "trial": 15, "rt": 3898, "response": "Beta"}, "14": {"stimulus": 64, "trial": 14, "rt": 1478, "response": "Beta"}, "17": {"stimulus": 41, "trial": 17, "rt": 2240, "response": "Alpha"}, "16": {"stimulus": 31, "trial": 16, "rt": 1208, "response": "Alpha"}, "19": {"stimulus": 78, "trial": 19, "rt": 1389, "response": "Beta"}, "18": {"stimulus": 61, "trial": 18, "rt": 1935, "response": "Alpha"}, "31": {"stimulus": 56, "trial": 31, "rt": 1755, "response": "Alpha"}, "30": {"stimulus": 71, "trial": 30, "rt": 1511, "response": "Beta"}, "37": {"stimulus": 38, "trial": 37, "rt": 1439, "response": "Alpha"}, "36": {"stimulus": 58, "trial": 36, "rt": 1248, "response": "Beta"}, "35": {"stimulus": 40, "trial": 35, "rt": 1460, "response": "Alpha"}, "34": {"stimulus": 48, "trial": 34, "rt": 1006, "response": "Alpha"}, "33": {"stimulus": 55, "trial": 33, "rt": 1420, "response": "Alpha"}, "55": {"stimulus": 49, "trial": 55, "rt": 1976, "response": "Alpha"}, "74": {"stimulus": 50, "trial": 74, "rt": 1269, "response": "Alpha"}, "32": {"stimulus": 57, "trial": 32, "rt": 1743, "response": "Alpha"}, "57": {"stimulus": 69, "trial": 57, "rt": 1542, "response": "Beta"}, "50": {"stimulus": 5, "trial": 50, "rt": 1459, "response": "Alpha"}}}