{"generation": {"1": {"stimulus": 18, "trial": 1, "rt": 4481}, "0": {"stimulus": 72, "trial": 0, "rt": 6323}, "3": {"stimulus": 8, "trial": 3, "rt": 4100}, "2": {"stimulus": 80, "trial": 2, "rt": 4355}}, "info": {"finish": 1488822805805, "participant": 119, "exposed": true, "lab": false, "start": 1488822323902, "counterbalance": 0, "condition": "Cluster", "browser": {"platform": "MacIntel", "userAgent": "Mozilla/5.0 (Macintosh; Intel Mac OS X 10_10_5) AppleWebKit/537.36 (KHTML, like Gecko) Chrome/56.0.2924.87 Safari/537.36"}}, "experiment": {"Paradigm": "TACL", "Stimuli": "Size-Color Squares", "Experiment": "Generating-Categories"}, "observation": {"11": {"stimulus": 32, "trial": 11, "rt": 1027}, "10": {"stimulus": 14, "trial": 10, "rt": 1238}, "1": {"stimulus": 14, "trial": 1, "rt": 1276}, "0": {"stimulus": 16, "trial": 0, "rt": 1411}, "3": {"stimulus": 32, "trial": 3, "rt": 1628}, "2": {"stimulus": 34, "trial": 2, "rt": 873}, "5": {"stimulus": 14, "trial": 5, "rt": 1479}, "4": {"stimulus": 16, "trial": 4, "rt": 1901}, "7": {"stimulus": 32, "trial": 7, "rt": 1182}, "6": {"stimulus": 34, "trial": 6, "rt": 1832}, "9": {"stimulus": 34, "trial": 9, "rt": 1067}, "8": {"stimulus": 16, "trial": 8, "rt": 1153}}, "generalization": {"56": {"stimulus": 29, "trial": 56, "rt": 526, "response": "Alpha"}, "77": {"stimulus": 15, "trial": 77, "rt": 763, "response": "Beta"}, "54": {"stimulus": 22, "trial": 54, "rt": 1169, "response": "Beta"}, "42": {"stimulus": 67, "trial": 42, "rt": 1728, "response": "Alpha"}, "48": {"stimulus": 50, "trial": 48, "rt": 569, "response": "Alpha"}, "43": {"stimulus": 25, "trial": 43, "rt": 1785, "response": "Alpha"}, "60": {"stimulus": 75, "trial": 60, "rt": 1018, "response": "Beta"}, "61": {"stimulus": 28, "trial": 61, "rt": 459, "response": "Alpha"}, "62": {"stimulus": 1, "trial": 62, "rt": 956, "response": "Beta"}, "63": {"stimulus": 24, "trial": 63, "rt": 862, "response": "Alpha"}, "64": {"stimulus": 36, "trial": 64, "rt": 528, "response": "Alpha"}, "49": {"stimulus": 48, "trial": 49, "rt": 568, "response": "Beta"}, "66": {"stimulus": 72, "trial": 66, "rt": 978, "response": "Beta"}, "67": {"stimulus": 23, "trial": 67, "rt": 669, "response": "Alpha"}, "68": {"stimulus": 20, "trial": 68, "rt": 451, "response": "Alpha"}, "69": {"stimulus": 27, "trial": 69, "rt": 451, "response": "Alpha"}, "80": {"stimulus": 14, "trial": 80, "rt": 997, "response": "Beta"}, "52": {"stimulus": 9, "trial": 52, "rt": 693, "response": "Alpha"}, "53": {"stimulus": 74, "trial": 53, "rt": 472, "response": "Alpha"}, "24": {"stimulus": 78, "trial": 24, "rt": 706, "response": "Alpha"}, "25": {"stimulus": 46, "trial": 25, "rt": 459, "response": "Beta"}, "26": {"stimulus": 0, "trial": 26, "rt": 628, "response": "Beta"}, "27": {"stimulus": 26, "trial": 27, "rt": 606, "response": "Beta"}, "20": {"stimulus": 51, "trial": 20, "rt": 699, "response": "Alpha"}, "21": {"stimulus": 69, "trial": 21, "rt": 491, "response": "Alpha"}, "22": {"stimulus": 79, "trial": 22, "rt": 418, "response": "Beta"}, "23": {"stimulus": 80, "trial": 23, "rt": 427, "response": "Alpha"}, "46": {"stimulus": 53, "trial": 46, "rt": 1269, "response": "Alpha"}, "47": {"stimulus": 77, "trial": 47, "rt": 995, "response": "Alpha"}, "44": {"stimulus": 43, "trial": 44, "rt": 465, "response": "Beta"}, "45": {"stimulus": 34, "trial": 45, "rt": 1013, "response": "Alpha"}, "28": {"stimulus": 68, "trial": 28, "rt": 583, "response": "Alpha"}, "29": {"stimulus": 52, "trial": 29, "rt": 847, "response": "Alpha"}, "40": {"stimulus": 44, "trial": 40, "rt": 925, "response": "Alpha"}, "41": {"stimulus": 38, "trial": 41, "rt": 550, "response": "Alpha"}, "1": {"stimulus": 42, "trial": 1, "rt": 988, "response": "Alpha"}, "0": {"stimulus": 54, "trial": 0, "rt": 1797, "response": "Beta"}, "3": {"stimulus": 55, "trial": 3, "rt": 443, "response": "Beta"}, "2": {"stimulus": 19, "trial": 2, "rt": 1230, "response": "Alpha"}, "5": {"stimulus": 63, "trial": 5, "rt": 473, "response": "Beta"}, "4": {"stimulus": 45, "trial": 4, "rt": 536, "response": "Beta"}, "7": {"stimulus": 65, "trial": 7, "rt": 458, "response": "Beta"}, "6": {"stimulus": 76, "trial": 6, "rt": 848, "response": "Alpha"}, "9": {"stimulus": 31, "trial": 9, "rt": 903, "response": "Alpha"}, "8": {"stimulus": 2, "trial": 8, "rt": 456, "response": "Beta"}, "78": {"stimulus": 37, "trial": 78, "rt": 731, "response": "Alpha"}, "51": {"stimulus": 73, "trial": 51, "rt": 1121, "response": "Beta"}, "39": {"stimulus": 3, "trial": 39, "rt": 576, "response": "Beta"}, "65": {"stimulus": 33, "trial": 65, "rt": 504, "response": "Alpha"}, "76": {"stimulus": 16, "trial": 76, "rt": 1182, "response": "Beta"}, "75": {"stimulus": 5, "trial": 75, "rt": 839, "response": "Beta"}, "38": {"stimulus": 11, "trial": 38, "rt": 528, "response": "Alpha"}, "73": {"stimulus": 7, "trial": 73, "rt": 988, "response": "Beta"}, "72": {"stimulus": 62, "trial": 72, "rt": 1074, "response": "Alpha"}, "71": {"stimulus": 59, "trial": 71, "rt": 932, "response": "Beta"}, "70": {"stimulus": 64, "trial": 70, "rt": 816, "response": "Beta"}, "59": {"stimulus": 30, "trial": 59, "rt": 1034, "response": "Alpha"}, "79": {"stimulus": 70, "trial": 79, "rt": 1143, "response": "Alpha"}, "58": {"stimulus": 12, "trial": 58, "rt": 706, "response": "Beta"}, "11": {"stimulus": 71, "trial": 11, "rt": 465, "response": "Beta"}, "10": {"stimulus": 41, "trial": 10, "rt": 388, "response": "Beta"}, "13": {"stimulus": 56, "trial": 13, "rt": 1279, "response": "Beta"}, "12": {"stimulus": 4, "trial": 12, "rt": 419, "response": "Alpha"}, "15": {"stimulus": 58, "trial": 15, "rt": 1221, "response": "Alpha"}, "14": {"stimulus": 13, "trial": 14, "rt": 1271, "response": "Alpha"}, "17": {"stimulus": 57, "trial": 17, "rt": 450, "response": "Beta"}, "16": {"stimulus": 21, "trial": 16, "rt": 1018, "response": "Alpha"}, "19": {"stimulus": 66, "trial": 19, "rt": 559, "response": "Alpha"}, "18": {"stimulus": 6, "trial": 18, "rt": 505, "response": "Beta"}, "31": {"stimulus": 10, "trial": 31, "rt": 800, "response": "Beta"}, "30": {"stimulus": 61, "trial": 30, "rt": 512, "response": "Alpha"}, "37": {"stimulus": 18, "trial": 37, "rt": 1105, "response": "Alpha"}, "36": {"stimulus": 17, "trial": 36, "rt": 1948, "response": "Beta"}, "35": {"stimulus": 40, "trial": 35, "rt": 496, "response": "Alpha"}, "34": {"stimulus": 39, "trial": 34, "rt": 1317, "response": "Alpha"}, "33": {"stimulus": 49, "trial": 33, "rt": 488, "response": "Beta"}, "55": {"stimulus": 32, "trial": 55, "rt": 504, "response": "Alpha"}, "74": {"stimulus": 47, "trial": 74, "rt": 1277, "response": "Alpha"}, "32": {"stimulus": 60, "trial": 32, "rt": 817, "response": "Alpha"}, "57": {"stimulus": 8, "trial": 57, "rt": 1012, "response": "Beta"}, "50": {"stimulus": 35, "trial": 50, "rt": 441, "response": "Alpha"}}}