{"generation": {"1": {"stimulus": 72, "trial": 1, "rt": 9583}, "0": {"stimulus": 18, "trial": 0, "rt": 17831}, "3": {"stimulus": 2, "trial": 3, "rt": 17135}, "2": {"stimulus": 80, "trial": 2, "rt": 8059}}, "info": {"finish": 1488822658100, "participant": 121, "exposed": true, "lab": false, "start": 1488822328269, "counterbalance": 6, "condition": "Cluster", "browser": {"platform": "MacIntel", "userAgent": "Mozilla/5.0 (Macintosh; Intel Mac OS X 10_12_3) AppleWebKit/602.4.8 (KHTML, like Gecko) Version/10.0.3 Safari/602.4.8"}}, "experiment": {"Paradigm": "TACL", "Stimuli": "Size-Color Squares", "Experiment": "Generating-Categories"}, "observation": {"11": {"stimulus": 16, "trial": 11, "rt": 1086}, "10": {"stimulus": 34, "trial": 10, "rt": 1301}, "1": {"stimulus": 34, "trial": 1, "rt": 3475}, "0": {"stimulus": 32, "trial": 0, "rt": 3592}, "3": {"stimulus": 14, "trial": 3, "rt": 4153}, "2": {"stimulus": 16, "trial": 2, "rt": 4544}, "5": {"stimulus": 34, "trial": 5, "rt": 3603}, "4": {"stimulus": 14, "trial": 4, "rt": 2815}, "7": {"stimulus": 16, "trial": 7, "rt": 1965}, "6": {"stimulus": 32, "trial": 6, "rt": 1263}, "9": {"stimulus": 14, "trial": 9, "rt": 1198}, "8": {"stimulus": 32, "trial": 8, "rt": 1689}}, "generalization": {"56": {"stimulus": 42, "trial": 56, "rt": 1103, "response": "Alpha"}, "77": {"stimulus": 41, "trial": 77, "rt": 1044, "response": "Alpha"}, "54": {"stimulus": 59, "trial": 54, "rt": 978, "response": "Alpha"}, "42": {"stimulus": 52, "trial": 42, "rt": 949, "response": "Alpha"}, "48": {"stimulus": 38, "trial": 48, "rt": 4126, "response": "Beta"}, "43": {"stimulus": 29, "trial": 43, "rt": 813, "response": "Beta"}, "60": {"stimulus": 36, "trial": 60, "rt": 444, "response": "Beta"}, "61": {"stimulus": 31, "trial": 61, "rt": 1203, "response": "Alpha"}, "62": {"stimulus": 33, "trial": 62, "rt": 706, "response": "Alpha"}, "63": {"stimulus": 35, "trial": 63, "rt": 878, "response": "Alpha"}, "64": {"stimulus": 44, "trial": 64, "rt": 628, "response": "Alpha"}, "49": {"stimulus": 71, "trial": 49, "rt": 938, "response": "Alpha"}, "66": {"stimulus": 8, "trial": 66, "rt": 1382, "response": "Alpha"}, "67": {"stimulus": 77, "trial": 67, "rt": 1230, "response": "Alpha"}, "68": {"stimulus": 13, "trial": 68, "rt": 1980, "response": "Beta"}, "69": {"stimulus": 18, "trial": 69, "rt": 637, "response": "Beta"}, "80": {"stimulus": 69, "trial": 80, "rt": 663, "response": "Alpha"}, "52": {"stimulus": 74, "trial": 52, "rt": 509, "response": "Beta"}, "53": {"stimulus": 7, "trial": 53, "rt": 885, "response": "Alpha"}, "24": {"stimulus": 65, "trial": 24, "rt": 741, "response": "Beta"}, "25": {"stimulus": 66, "trial": 25, "rt": 725, "response": "Beta"}, "26": {"stimulus": 25, "trial": 26, "rt": 4591, "response": "Alpha"}, "27": {"stimulus": 6, "trial": 27, "rt": 1803, "response": "Alpha"}, "20": {"stimulus": 79, "trial": 20, "rt": 1543, "response": "Alpha"}, "21": {"stimulus": 64, "trial": 21, "rt": 923, "response": "Beta"}, "22": {"stimulus": 47, "trial": 22, "rt": 1331, "response": "Beta"}, "23": {"stimulus": 54, "trial": 23, "rt": 531, "response": "Beta"}, "46": {"stimulus": 27, "trial": 46, "rt": 526, "response": "Beta"}, "47": {"stimulus": 60, "trial": 47, "rt": 2919, "response": "Alpha"}, "44": {"stimulus": 20, "trial": 44, "rt": 481, "response": "Beta"}, "45": {"stimulus": 5, "trial": 45, "rt": 1262, "response": "Alpha"}, "28": {"stimulus": 15, "trial": 28, "rt": 740, "response": "Alpha"}, "29": {"stimulus": 22, "trial": 29, "rt": 881, "response": "Alpha"}, "40": {"stimulus": 45, "trial": 40, "rt": 807, "response": "Beta"}, "41": {"stimulus": 58, "trial": 41, "rt": 752, "response": "Beta"}, "1": {"stimulus": 62, "trial": 1, "rt": 3479, "response": "Alpha"}, "0": {"stimulus": 4, "trial": 0, "rt": 2722, "response": "Alpha"}, "3": {"stimulus": 40, "trial": 3, "rt": 3118, "response": "Beta"}, "2": {"stimulus": 9, "trial": 2, "rt": 1109, "response": "Beta"}, "5": {"stimulus": 80, "trial": 5, "rt": 987, "response": "Alpha"}, "4": {"stimulus": 48, "trial": 4, "rt": 1237, "response": "Beta"}, "7": {"stimulus": 63, "trial": 7, "rt": 1735, "response": "Beta"}, "6": {"stimulus": 70, "trial": 6, "rt": 1494, "response": "Alpha"}, "9": {"stimulus": 26, "trial": 9, "rt": 1249, "response": "Alpha"}, "8": {"stimulus": 53, "trial": 8, "rt": 2146, "response": "Alpha"}, "78": {"stimulus": 67, "trial": 78, "rt": 911, "response": "Beta"}, "51": {"stimulus": 55, "trial": 51, "rt": 556, "response": "Beta"}, "39": {"stimulus": 24, "trial": 39, "rt": 1756, "response": "Alpha"}, "65": {"stimulus": 1, "trial": 65, "rt": 936, "response": "Beta"}, "76": {"stimulus": 57, "trial": 76, "rt": 905, "response": "Beta"}, "75": {"stimulus": 37, "trial": 75, "rt": 605, "response": "Beta"}, "38": {"stimulus": 61, "trial": 38, "rt": 1557, "response": "Alpha"}, "73": {"stimulus": 2, "trial": 73, "rt": 1011, "response": "Beta"}, "72": {"stimulus": 56, "trial": 72, "rt": 540, "response": "Beta"}, "71": {"stimulus": 50, "trial": 71, "rt": 894, "response": "Beta"}, "70": {"stimulus": 68, "trial": 70, "rt": 977, "response": "Beta"}, "59": {"stimulus": 30, "trial": 59, "rt": 1210, "response": "Beta"}, "79": {"stimulus": 11, "trial": 79, "rt": 1740, "response": "Beta"}, "58": {"stimulus": 34, "trial": 58, "rt": 33016, "response": "Alpha"}, "11": {"stimulus": 3, "trial": 11, "rt": 899, "response": "Beta"}, "10": {"stimulus": 23, "trial": 10, "rt": 1352, "response": "Alpha"}, "13": {"stimulus": 19, "trial": 13, "rt": 630, "response": "Beta"}, "12": {"stimulus": 10, "trial": 12, "rt": 619, "response": "Beta"}, "15": {"stimulus": 78, "trial": 15, "rt": 4328, "response": "Alpha"}, "14": {"stimulus": 49, "trial": 14, "rt": 2201, "response": "Alpha"}, "17": {"stimulus": 12, "trial": 17, "rt": 1618, "response": "Beta"}, "16": {"stimulus": 46, "trial": 16, "rt": 1213, "response": "Beta"}, "19": {"stimulus": 51, "trial": 19, "rt": 2403, "response": "Alpha"}, "18": {"stimulus": 28, "trial": 18, "rt": 1005, "response": "Beta"}, "31": {"stimulus": 32, "trial": 31, "rt": 1012, "response": "Alpha"}, "30": {"stimulus": 39, "trial": 30, "rt": 1367, "response": "Alpha"}, "37": {"stimulus": 21, "trial": 37, "rt": 964, "response": "Beta"}, "36": {"stimulus": 16, "trial": 36, "rt": 824, "response": "Alpha"}, "35": {"stimulus": 43, "trial": 35, "rt": 1367, "response": "Alpha"}, "34": {"stimulus": 73, "trial": 34, "rt": 945, "response": "Beta"}, "33": {"stimulus": 14, "trial": 33, "rt": 1542, "response": "Alpha"}, "55": {"stimulus": 0, "trial": 55, "rt": 819, "response": "Beta"}, "74": {"stimulus": 75, "trial": 74, "rt": 573, "response": "Beta"}, "32": {"stimulus": 17, "trial": 32, "rt": 1274, "response": "Alpha"}, "57": {"stimulus": 72, "trial": 57, "rt": 673, "response": "Beta"}, "50": {"stimulus": 76, "trial": 50, "rt": 19039, "response": "Beta"}}}