{"generation": {"1": {"stimulus": 28, "trial": 1, "rt": 6347}, "0": {"stimulus": 27, "trial": 0, "rt": 12019}, "3": {"stimulus": 37, "trial": 3, "rt": 4917}, "2": {"stimulus": 36, "trial": 2, "rt": 12042}}, "info": {"finish": 1488822542083, "participant": 122, "exposed": true, "lab": false, "start": 1488822334134, "counterbalance": 6, "condition": "Cluster", "browser": {"platform": "Win32", "userAgent": "Mozilla/5.0 (Windows NT 6.1; WOW64; rv:51.0) Gecko/20100101 Firefox/51.0"}}, "experiment": {"Paradigm": "TACL", "Stimuli": "Size-Color Squares", "Experiment": "Generating-Categories"}, "observation": {"11": {"stimulus": 14, "trial": 11, "rt": 691}, "10": {"stimulus": 16, "trial": 10, "rt": 677}, "1": {"stimulus": 14, "trial": 1, "rt": 1765}, "0": {"stimulus": 32, "trial": 0, "rt": 2833}, "3": {"stimulus": 16, "trial": 3, "rt": 1261}, "2": {"stimulus": 34, "trial": 2, "rt": 1347}, "5": {"stimulus": 34, "trial": 5, "rt": 3646}, "4": {"stimulus": 14, "trial": 4, "rt": 1083}, "7": {"stimulus": 32, "trial": 7, "rt": 962}, "6": {"stimulus": 16, "trial": 6, "rt": 1006}, "9": {"stimulus": 34, "trial": 9, "rt": 674}, "8": {"stimulus": 32, "trial": 8, "rt": 951}}, "generalization": {"56": {"stimulus": 38, "trial": 56, "rt": 1694, "response": "Alpha"}, "77": {"stimulus": 28, "trial": 77, "rt": 1305, "response": "Beta"}, "54": {"stimulus": 33, "trial": 54, "rt": 555, "response": "Alpha"}, "42": {"stimulus": 65, "trial": 42, "rt": 1097, "response": "Beta"}, "48": {"stimulus": 70, "trial": 48, "rt": 1330, "response": "Alpha"}, "43": {"stimulus": 68, "trial": 43, "rt": 998, "response": "Alpha"}, "60": {"stimulus": 71, "trial": 60, "rt": 642, "response": "Alpha"}, "61": {"stimulus": 17, "trial": 61, "rt": 520, "response": "Alpha"}, "62": {"stimulus": 39, "trial": 62, "rt": 739, "response": "Alpha"}, "63": {"stimulus": 6, "trial": 63, "rt": 667, "response": "Alpha"}, "64": {"stimulus": 63, "trial": 64, "rt": 1134, "response": "Beta"}, "49": {"stimulus": 16, "trial": 49, "rt": 642, "response": "Alpha"}, "66": {"stimulus": 53, "trial": 66, "rt": 826, "response": "Alpha"}, "67": {"stimulus": 49, "trial": 67, "rt": 704, "response": "Alpha"}, "68": {"stimulus": 55, "trial": 68, "rt": 1071, "response": "Beta"}, "69": {"stimulus": 73, "trial": 69, "rt": 1060, "response": "Beta"}, "80": {"stimulus": 51, "trial": 80, "rt": 663, "response": "Alpha"}, "52": {"stimulus": 72, "trial": 52, "rt": 1232, "response": "Beta"}, "53": {"stimulus": 57, "trial": 53, "rt": 1368, "response": "Alpha"}, "24": {"stimulus": 52, "trial": 24, "rt": 704, "response": "Alpha"}, "25": {"stimulus": 54, "trial": 25, "rt": 984, "response": "Beta"}, "26": {"stimulus": 8, "trial": 26, "rt": 1110, "response": "Alpha"}, "27": {"stimulus": 31, "trial": 27, "rt": 691, "response": "Alpha"}, "20": {"stimulus": 50, "trial": 20, "rt": 691, "response": "Alpha"}, "21": {"stimulus": 27, "trial": 21, "rt": 1213, "response": "Beta"}, "22": {"stimulus": 26, "trial": 22, "rt": 1355, "response": "Alpha"}, "23": {"stimulus": 75, "trial": 23, "rt": 2155, "response": "Alpha"}, "46": {"stimulus": 74, "trial": 46, "rt": 643, "response": "Beta"}, "47": {"stimulus": 64, "trial": 47, "rt": 629, "response": "Beta"}, "44": {"stimulus": 41, "trial": 44, "rt": 580, "response": "Alpha"}, "45": {"stimulus": 37, "trial": 45, "rt": 1023, "response": "Beta"}, "28": {"stimulus": 30, "trial": 28, "rt": 618, "response": "Alpha"}, "29": {"stimulus": 12, "trial": 29, "rt": 872, "response": "Alpha"}, "40": {"stimulus": 48, "trial": 40, "rt": 3508, "response": "Alpha"}, "41": {"stimulus": 43, "trial": 41, "rt": 543, "response": "Alpha"}, "1": {"stimulus": 45, "trial": 1, "rt": 3023, "response": "Beta"}, "0": {"stimulus": 47, "trial": 0, "rt": 2987, "response": "Beta"}, "3": {"stimulus": 78, "trial": 3, "rt": 850, "response": "Alpha"}, "2": {"stimulus": 25, "trial": 2, "rt": 1401, "response": "Alpha"}, "5": {"stimulus": 15, "trial": 5, "rt": 1147, "response": "Alpha"}, "4": {"stimulus": 29, "trial": 4, "rt": 1527, "response": "Beta"}, "7": {"stimulus": 36, "trial": 7, "rt": 1157, "response": "Beta"}, "6": {"stimulus": 76, "trial": 6, "rt": 554, "response": "Alpha"}, "9": {"stimulus": 46, "trial": 9, "rt": 713, "response": "Beta"}, "8": {"stimulus": 11, "trial": 8, "rt": 926, "response": "Beta"}, "78": {"stimulus": 13, "trial": 78, "rt": 1182, "response": "Alpha"}, "51": {"stimulus": 44, "trial": 51, "rt": 703, "response": "Alpha"}, "39": {"stimulus": 2, "trial": 39, "rt": 3858, "response": "Beta"}, "65": {"stimulus": 3, "trial": 65, "rt": 1785, "response": "Alpha"}, "76": {"stimulus": 35, "trial": 76, "rt": 826, "response": "Alpha"}, "75": {"stimulus": 22, "trial": 75, "rt": 704, "response": "Alpha"}, "38": {"stimulus": 60, "trial": 38, "rt": 665, "response": "Alpha"}, "73": {"stimulus": 77, "trial": 73, "rt": 690, "response": "Alpha"}, "72": {"stimulus": 4, "trial": 72, "rt": 850, "response": "Alpha"}, "71": {"stimulus": 62, "trial": 71, "rt": 1158, "response": "Alpha"}, "70": {"stimulus": 1, "trial": 70, "rt": 642, "response": "Beta"}, "59": {"stimulus": 5, "trial": 59, "rt": 568, "response": "Alpha"}, "79": {"stimulus": 66, "trial": 79, "rt": 707, "response": "Alpha"}, "58": {"stimulus": 14, "trial": 58, "rt": 937, "response": "Alpha"}, "11": {"stimulus": 69, "trial": 11, "rt": 1217, "response": "Alpha"}, "10": {"stimulus": 19, "trial": 10, "rt": 872, "response": "Beta"}, "13": {"stimulus": 10, "trial": 13, "rt": 2184, "response": "Beta"}, "12": {"stimulus": 56, "trial": 12, "rt": 863, "response": "Alpha"}, "15": {"stimulus": 79, "trial": 15, "rt": 655, "response": "Alpha"}, "14": {"stimulus": 40, "trial": 14, "rt": 1183, "response": "Alpha"}, "17": {"stimulus": 21, "trial": 17, "rt": 753, "response": "Alpha"}, "16": {"stimulus": 58, "trial": 16, "rt": 781, "response": "Alpha"}, "19": {"stimulus": 59, "trial": 19, "rt": 703, "response": "Alpha"}, "18": {"stimulus": 80, "trial": 18, "rt": 792, "response": "Alpha"}, "31": {"stimulus": 34, "trial": 31, "rt": 1245, "response": "Alpha"}, "30": {"stimulus": 18, "trial": 30, "rt": 1159, "response": "Beta"}, "37": {"stimulus": 61, "trial": 37, "rt": 568, "response": "Alpha"}, "36": {"stimulus": 24, "trial": 36, "rt": 556, "response": "Alpha"}, "35": {"stimulus": 42, "trial": 35, "rt": 538, "response": "Alpha"}, "34": {"stimulus": 7, "trial": 34, "rt": 1128, "response": "Alpha"}, "33": {"stimulus": 9, "trial": 33, "rt": 568, "response": "Beta"}, "55": {"stimulus": 32, "trial": 55, "rt": 468, "response": "Alpha"}, "74": {"stimulus": 23, "trial": 74, "rt": 776, "response": "Alpha"}, "32": {"stimulus": 0, "trial": 32, "rt": 1244, "response": "Beta"}, "57": {"stimulus": 20, "trial": 57, "rt": 3484, "response": "Beta"}, "50": {"stimulus": 67, "trial": 50, "rt": 664, "response": "Alpha"}}}