{"generation": {"1": {"stimulus": 55, "trial": 1, "rt": 15610}, "0": {"stimulus": 50, "trial": 0, "rt": 36825}, "3": {"stimulus": 6, "trial": 3, "rt": 10540}, "2": {"stimulus": 1, "trial": 2, "rt": 14776}}, "info": {"finish": 1488822702656, "participant": 123, "exposed": true, "lab": false, "start": 1488822299248, "counterbalance": 3, "condition": "XOR", "browser": {"platform": "Win32", "userAgent": "Mozilla/5.0 (Windows NT 6.3; Win64; x64) AppleWebKit/537.36 (KHTML, like Gecko) Chrome/56.0.2924.87 Safari/537.36"}}, "experiment": {"Paradigm": "TACL", "Stimuli": "Size-Color Squares", "Experiment": "Generating-Categories"}, "observation": {"11": {"stimulus": 80, "trial": 11, "rt": 3473}, "10": {"stimulus": 70, "trial": 10, "rt": 3594}, "1": {"stimulus": 10, "trial": 1, "rt": 5742}, "0": {"stimulus": 80, "trial": 0, "rt": 5069}, "3": {"stimulus": 70, "trial": 3, "rt": 5104}, "2": {"stimulus": 0, "trial": 2, "rt": 5166}, "5": {"stimulus": 0, "trial": 5, "rt": 3927}, "4": {"stimulus": 10, "trial": 4, "rt": 4473}, "7": {"stimulus": 70, "trial": 7, "rt": 4028}, "6": {"stimulus": 80, "trial": 6, "rt": 4660}, "9": {"stimulus": 0, "trial": 9, "rt": 3936}, "8": {"stimulus": 10, "trial": 8, "rt": 4150}}, "generalization": {"56": {"stimulus": 52, "trial": 56, "rt": 1133, "response": "Beta"}, "77": {"stimulus": 22, "trial": 77, "rt": 1273, "response": "Beta"}, "54": {"stimulus": 44, "trial": 54, "rt": 1443, "response": "Beta"}, "42": {"stimulus": 0, "trial": 42, "rt": 2132, "response": "Alpha"}, "48": {"stimulus": 59, "trial": 48, "rt": 3442, "response": "Beta"}, "43": {"stimulus": 19, "trial": 43, "rt": 1476, "response": "Beta"}, "60": {"stimulus": 48, "trial": 60, "rt": 1233, "response": "Beta"}, "61": {"stimulus": 67, "trial": 61, "rt": 1245, "response": "Alpha"}, "62": {"stimulus": 17, "trial": 62, "rt": 3100, "response": "Alpha"}, "63": {"stimulus": 33, "trial": 63, "rt": 1081, "response": "Beta"}, "64": {"stimulus": 46, "trial": 64, "rt": 1456, "response": "Beta"}, "49": {"stimulus": 40, "trial": 49, "rt": 1569, "response": "Beta"}, "66": {"stimulus": 54, "trial": 66, "rt": 2644, "response": "Beta"}, "67": {"stimulus": 75, "trial": 67, "rt": 1063, "response": "Alpha"}, "68": {"stimulus": 3, "trial": 68, "rt": 1304, "response": "Alpha"}, "69": {"stimulus": 74, "trial": 69, "rt": 940, "response": "Alpha"}, "80": {"stimulus": 34, "trial": 80, "rt": 2863, "response": "Beta"}, "52": {"stimulus": 70, "trial": 52, "rt": 1384, "response": "Alpha"}, "53": {"stimulus": 11, "trial": 53, "rt": 1526, "response": "Beta"}, "24": {"stimulus": 18, "trial": 24, "rt": 1626, "response": "Beta"}, "25": {"stimulus": 63, "trial": 25, "rt": 1265, "response": "Alpha"}, "26": {"stimulus": 23, "trial": 26, "rt": 7247, "response": "Alpha"}, "27": {"stimulus": 42, "trial": 27, "rt": 3018, "response": "Beta"}, "20": {"stimulus": 39, "trial": 20, "rt": 3522, "response": "Beta"}, "21": {"stimulus": 69, "trial": 21, "rt": 1211, "response": "Alpha"}, "22": {"stimulus": 28, "trial": 22, "rt": 8580, "response": "Beta"}, "23": {"stimulus": 21, "trial": 23, "rt": 1729, "response": "Beta"}, "46": {"stimulus": 9, "trial": 46, "rt": 1627, "response": "Beta"}, "47": {"stimulus": 53, "trial": 47, "rt": 2292, "response": "Beta"}, "44": {"stimulus": 51, "trial": 44, "rt": 2526, "response": "Beta"}, "45": {"stimulus": 66, "trial": 45, "rt": 1304, "response": "Alpha"}, "28": {"stimulus": 64, "trial": 28, "rt": 1925, "response": "Alpha"}, "29": {"stimulus": 27, "trial": 29, "rt": 2570, "response": "Beta"}, "40": {"stimulus": 72, "trial": 40, "rt": 1042, "response": "Alpha"}, "41": {"stimulus": 58, "trial": 41, "rt": 10842, "response": "Beta"}, "1": {"stimulus": 24, "trial": 1, "rt": 2040, "response": "Beta"}, "0": {"stimulus": 38, "trial": 0, "rt": 3530, "response": "Beta"}, "3": {"stimulus": 65, "trial": 3, "rt": 1353, "response": "Alpha"}, "2": {"stimulus": 62, "trial": 2, "rt": 1506, "response": "Alpha"}, "5": {"stimulus": 26, "trial": 5, "rt": 2415, "response": "Beta"}, "4": {"stimulus": 56, "trial": 4, "rt": 1344, "response": "Alpha"}, "7": {"stimulus": 57, "trial": 7, "rt": 1293, "response": "Alpha"}, "6": {"stimulus": 13, "trial": 6, "rt": 1324, "response": "Beta"}, "9": {"stimulus": 55, "trial": 9, "rt": 1333, "response": "Alpha"}, "8": {"stimulus": 20, "trial": 8, "rt": 4430, "response": "Beta"}, "78": {"stimulus": 45, "trial": 78, "rt": 861, "response": "Beta"}, "51": {"stimulus": 1, "trial": 51, "rt": 1021, "response": "Alpha"}, "39": {"stimulus": 71, "trial": 39, "rt": 1868, "response": "Alpha"}, "65": {"stimulus": 31, "trial": 65, "rt": 1003, "response": "Beta"}, "76": {"stimulus": 16, "trial": 76, "rt": 2404, "response": "Alpha"}, "75": {"stimulus": 2, "trial": 75, "rt": 980, "response": "Alpha"}, "38": {"stimulus": 68, "trial": 38, "rt": 2010, "response": "Alpha"}, "73": {"stimulus": 10, "trial": 73, "rt": 1224, "response": "Beta"}, "72": {"stimulus": 43, "trial": 72, "rt": 1144, "response": "Beta"}, "71": {"stimulus": 15, "trial": 71, "rt": 970, "response": "Beta"}, "70": {"stimulus": 30, "trial": 70, "rt": 1150, "response": "Beta"}, "59": {"stimulus": 35, "trial": 59, "rt": 1273, "response": "Beta"}, "79": {"stimulus": 12, "trial": 79, "rt": 1665, "response": "Alpha"}, "58": {"stimulus": 78, "trial": 58, "rt": 1154, "response": "Alpha"}, "11": {"stimulus": 50, "trial": 11, "rt": 1546, "response": "Beta"}, "10": {"stimulus": 36, "trial": 10, "rt": 3220, "response": "Beta"}, "13": {"stimulus": 25, "trial": 13, "rt": 4220, "response": "Alpha"}, "12": {"stimulus": 61, "trial": 12, "rt": 1261, "response": "Alpha"}, "15": {"stimulus": 60, "trial": 15, "rt": 1415, "response": "Alpha"}, "14": {"stimulus": 4, "trial": 14, "rt": 3300, "response": "Beta"}, "17": {"stimulus": 5, "trial": 17, "rt": 4460, "response": "Beta"}, "16": {"stimulus": 29, "trial": 16, "rt": 10298, "response": "Beta"}, "19": {"stimulus": 7, "trial": 19, "rt": 1214, "response": "Beta"}, "18": {"stimulus": 8, "trial": 18, "rt": 1225, "response": "Beta"}, "31": {"stimulus": 41, "trial": 31, "rt": 1445, "response": "Beta"}, "30": {"stimulus": 37, "trial": 30, "rt": 942, "response": "Beta"}, "37": {"stimulus": 80, "trial": 37, "rt": 881, "response": "Alpha"}, "36": {"stimulus": 76, "trial": 36, "rt": 891, "response": "Alpha"}, "35": {"stimulus": 79, "trial": 35, "rt": 921, "response": "Alpha"}, "34": {"stimulus": 73, "trial": 34, "rt": 1162, "response": "Alpha"}, "33": {"stimulus": 49, "trial": 33, "rt": 1647, "response": "Beta"}, "55": {"stimulus": 47, "trial": 55, "rt": 1071, "response": "Beta"}, "74": {"stimulus": 6, "trial": 74, "rt": 2058, "response": "Alpha"}, "32": {"stimulus": 77, "trial": 32, "rt": 1332, "response": "Alpha"}, "57": {"stimulus": 32, "trial": 57, "rt": 1293, "response": "Beta"}, "50": {"stimulus": 14, "trial": 50, "rt": 6499, "response": "Alpha"}}}