{"generation": {"1": {"stimulus": 73, "trial": 1, "rt": 9253}, "0": {"stimulus": 72, "trial": 0, "rt": 10999}, "3": {"stimulus": 18, "trial": 3, "rt": 4488}, "2": {"stimulus": 1, "trial": 2, "rt": 10596}}, "info": {"finish": 1488822578994, "participant": 124, "exposed": true, "lab": false, "start": 1488822330116, "counterbalance": 6, "condition": "Cluster", "browser": {"platform": "Win32", "userAgent": "Mozilla/5.0 (Windows NT 10.0; Win64; x64) AppleWebKit/537.36 (KHTML, like Gecko) Chrome/56.0.2924.87 Safari/537.36"}}, "experiment": {"Paradigm": "TACL", "Stimuli": "Size-Color Squares", "Experiment": "Generating-Categories"}, "observation": {"11": {"stimulus": 32, "trial": 11, "rt": 1208}, "10": {"stimulus": 14, "trial": 10, "rt": 1087}, "1": {"stimulus": 16, "trial": 1, "rt": 16357}, "0": {"stimulus": 32, "trial": 0, "rt": 4068}, "3": {"stimulus": 34, "trial": 3, "rt": 1276}, "2": {"stimulus": 14, "trial": 2, "rt": 1591}, "5": {"stimulus": 14, "trial": 5, "rt": 1161}, "4": {"stimulus": 32, "trial": 4, "rt": 1466}, "7": {"stimulus": 16, "trial": 7, "rt": 1216}, "6": {"stimulus": 34, "trial": 6, "rt": 2007}, "9": {"stimulus": 16, "trial": 9, "rt": 1276}, "8": {"stimulus": 34, "trial": 8, "rt": 1131}}, "generalization": {"56": {"stimulus": 8, "trial": 56, "rt": 799, "response": "Alpha"}, "77": {"stimulus": 46, "trial": 77, "rt": 785, "response": "Beta"}, "54": {"stimulus": 25, "trial": 54, "rt": 980, "response": "Alpha"}, "42": {"stimulus": 57, "trial": 42, "rt": 2202, "response": "Alpha"}, "48": {"stimulus": 72, "trial": 48, "rt": 776, "response": "Beta"}, "43": {"stimulus": 7, "trial": 43, "rt": 958, "response": "Alpha"}, "60": {"stimulus": 18, "trial": 60, "rt": 1008, "response": "Beta"}, "61": {"stimulus": 58, "trial": 61, "rt": 1520, "response": "Alpha"}, "62": {"stimulus": 34, "trial": 62, "rt": 797, "response": "Alpha"}, "63": {"stimulus": 31, "trial": 63, "rt": 861, "response": "Alpha"}, "64": {"stimulus": 10, "trial": 64, "rt": 1238, "response": "Beta"}, "49": {"stimulus": 0, "trial": 49, "rt": 768, "response": "Beta"}, "66": {"stimulus": 48, "trial": 66, "rt": 843, "response": "Alpha"}, "67": {"stimulus": 65, "trial": 67, "rt": 1997, "response": "Beta"}, "68": {"stimulus": 80, "trial": 68, "rt": 1510, "response": "Alpha"}, "69": {"stimulus": 12, "trial": 69, "rt": 882, "response": "Alpha"}, "80": {"stimulus": 13, "trial": 80, "rt": 1435, "response": "Alpha"}, "52": {"stimulus": 47, "trial": 52, "rt": 2284, "response": "Beta"}, "53": {"stimulus": 33, "trial": 53, "rt": 1265, "response": "Alpha"}, "24": {"stimulus": 69, "trial": 24, "rt": 748, "response": "Alpha"}, "25": {"stimulus": 14, "trial": 25, "rt": 1208, "response": "Alpha"}, "26": {"stimulus": 45, "trial": 26, "rt": 1537, "response": "Beta"}, "27": {"stimulus": 75, "trial": 27, "rt": 1631, "response": "Alpha"}, "20": {"stimulus": 17, "trial": 20, "rt": 554, "response": "Alpha"}, "21": {"stimulus": 9, "trial": 21, "rt": 901, "response": "Beta"}, "22": {"stimulus": 71, "trial": 22, "rt": 806, "response": "Alpha"}, "23": {"stimulus": 76, "trial": 23, "rt": 878, "response": "Alpha"}, "46": {"stimulus": 50, "trial": 46, "rt": 876, "response": "Alpha"}, "47": {"stimulus": 74, "trial": 47, "rt": 2536, "response": "Beta"}, "44": {"stimulus": 22, "trial": 44, "rt": 843, "response": "Alpha"}, "45": {"stimulus": 29, "trial": 45, "rt": 1290, "response": "Alpha"}, "28": {"stimulus": 79, "trial": 28, "rt": 938, "response": "Alpha"}, "29": {"stimulus": 6, "trial": 29, "rt": 1107, "response": "Alpha"}, "40": {"stimulus": 68, "trial": 40, "rt": 778, "response": "Alpha"}, "41": {"stimulus": 15, "trial": 41, "rt": 786, "response": "Alpha"}, "1": {"stimulus": 43, "trial": 1, "rt": 909, "response": "Alpha"}, "0": {"stimulus": 4, "trial": 0, "rt": 1739, "response": "Alpha"}, "3": {"stimulus": 41, "trial": 3, "rt": 739, "response": "Alpha"}, "2": {"stimulus": 23, "trial": 2, "rt": 721, "response": "Alpha"}, "5": {"stimulus": 55, "trial": 5, "rt": 802, "response": "Beta"}, "4": {"stimulus": 63, "trial": 4, "rt": 1019, "response": "Beta"}, "7": {"stimulus": 21, "trial": 7, "rt": 789, "response": "Alpha"}, "6": {"stimulus": 30, "trial": 6, "rt": 1296, "response": "Alpha"}, "9": {"stimulus": 35, "trial": 9, "rt": 899, "response": "Alpha"}, "8": {"stimulus": 38, "trial": 8, "rt": 1249, "response": "Alpha"}, "78": {"stimulus": 64, "trial": 78, "rt": 698, "response": "Beta"}, "51": {"stimulus": 32, "trial": 51, "rt": 719, "response": "Alpha"}, "39": {"stimulus": 60, "trial": 39, "rt": 1152, "response": "Alpha"}, "65": {"stimulus": 53, "trial": 65, "rt": 2054, "response": "Alpha"}, "76": {"stimulus": 28, "trial": 76, "rt": 671, "response": "Beta"}, "75": {"stimulus": 54, "trial": 75, "rt": 1375, "response": "Beta"}, "38": {"stimulus": 27, "trial": 38, "rt": 786, "response": "Beta"}, "73": {"stimulus": 26, "trial": 73, "rt": 758, "response": "Alpha"}, "72": {"stimulus": 2, "trial": 72, "rt": 2174, "response": "Beta"}, "71": {"stimulus": 61, "trial": 71, "rt": 1285, "response": "Alpha"}, "70": {"stimulus": 73, "trial": 70, "rt": 1783, "response": "Beta"}, "59": {"stimulus": 40, "trial": 59, "rt": 1318, "response": "Beta"}, "79": {"stimulus": 56, "trial": 79, "rt": 4095, "response": "Beta"}, "58": {"stimulus": 19, "trial": 58, "rt": 1268, "response": "Beta"}, "11": {"stimulus": 5, "trial": 11, "rt": 616, "response": "Alpha"}, "10": {"stimulus": 51, "trial": 10, "rt": 605, "response": "Alpha"}, "13": {"stimulus": 49, "trial": 13, "rt": 931, "response": "Alpha"}, "12": {"stimulus": 37, "trial": 12, "rt": 978, "response": "Beta"}, "15": {"stimulus": 42, "trial": 15, "rt": 718, "response": "Alpha"}, "14": {"stimulus": 59, "trial": 14, "rt": 787, "response": "Alpha"}, "17": {"stimulus": 3, "trial": 17, "rt": 727, "response": "Alpha"}, "16": {"stimulus": 52, "trial": 16, "rt": 584, "response": "Alpha"}, "19": {"stimulus": 77, "trial": 19, "rt": 942, "response": "Alpha"}, "18": {"stimulus": 20, "trial": 18, "rt": 1202, "response": "Alpha"}, "31": {"stimulus": 11, "trial": 31, "rt": 1058, "response": "Beta"}, "30": {"stimulus": 1, "trial": 30, "rt": 1356, "response": "Beta"}, "37": {"stimulus": 36, "trial": 37, "rt": 1159, "response": "Beta"}, "36": {"stimulus": 39, "trial": 36, "rt": 988, "response": "Alpha"}, "35": {"stimulus": 62, "trial": 35, "rt": 897, "response": "Alpha"}, "34": {"stimulus": 78, "trial": 34, "rt": 803, "response": "Alpha"}, "33": {"stimulus": 44, "trial": 33, "rt": 850, "response": "Alpha"}, "55": {"stimulus": 70, "trial": 55, "rt": 801, "response": "Alpha"}, "74": {"stimulus": 66, "trial": 74, "rt": 1332, "response": "Alpha"}, "32": {"stimulus": 67, "trial": 32, "rt": 1162, "response": "Alpha"}, "57": {"stimulus": 16, "trial": 57, "rt": 748, "response": "Alpha"}, "50": {"stimulus": 24, "trial": 50, "rt": 1544, "response": "Alpha"}}}