{"generation": {"1": {"stimulus": 72, "trial": 1, "rt": 10143}, "0": {"stimulus": 50, "trial": 0, "rt": 16040}, "3": {"stimulus": 49, "trial": 3, "rt": 5974}, "2": {"stimulus": 29, "trial": 2, "rt": 10337}}, "info": {"finish": 1488822622805, "participant": 125, "exposed": true, "lab": false, "start": 1488822358260, "counterbalance": 1, "condition": "Row", "browser": {"platform": "Win32", "userAgent": "Mozilla/5.0 (Windows NT 10.0; WOW64) AppleWebKit/537.36 (KHTML, like Gecko) Chrome/56.0.2924.87 Safari/537.36"}}, "experiment": {"Paradigm": "TACL", "Stimuli": "Size-Color Squares", "Experiment": "Generating-Categories"}, "observation": {"11": {"stimulus": 16, "trial": 11, "rt": 1121}, "10": {"stimulus": 14, "trial": 10, "rt": 1245}, "1": {"stimulus": 10, "trial": 1, "rt": 1589}, "0": {"stimulus": 14, "trial": 0, "rt": 3849}, "3": {"stimulus": 16, "trial": 3, "rt": 1085}, "2": {"stimulus": 12, "trial": 2, "rt": 1096}, "5": {"stimulus": 14, "trial": 5, "rt": 1084}, "4": {"stimulus": 10, "trial": 4, "rt": 1164}, "7": {"stimulus": 16, "trial": 7, "rt": 1106}, "6": {"stimulus": 12, "trial": 6, "rt": 846}, "9": {"stimulus": 10, "trial": 9, "rt": 1740}, "8": {"stimulus": 12, "trial": 8, "rt": 2991}}, "generalization": {"56": {"stimulus": 54, "trial": 56, "rt": 919, "response": "Beta"}, "77": {"stimulus": 68, "trial": 77, "rt": 822, "response": "Beta"}, "54": {"stimulus": 60, "trial": 54, "rt": 1154, "response": "Beta"}, "42": {"stimulus": 16, "trial": 42, "rt": 1946, "response": "Alpha"}, "48": {"stimulus": 5, "trial": 48, "rt": 1003, "response": "Alpha"}, "43": {"stimulus": 57, "trial": 43, "rt": 1050, "response": "Beta"}, "60": {"stimulus": 48, "trial": 60, "rt": 532, "response": "Beta"}, "61": {"stimulus": 18, "trial": 61, "rt": 861, "response": "Alpha"}, "62": {"stimulus": 80, "trial": 62, "rt": 1574, "response": "Beta"}, "63": {"stimulus": 32, "trial": 63, "rt": 2003, "response": "Alpha"}, "64": {"stimulus": 73, "trial": 64, "rt": 854, "response": "Beta"}, "49": {"stimulus": 70, "trial": 49, "rt": 1148, "response": "Beta"}, "66": {"stimulus": 38, "trial": 66, "rt": 1397, "response": "Beta"}, "67": {"stimulus": 79, "trial": 67, "rt": 536, "response": "Beta"}, "68": {"stimulus": 25, "trial": 68, "rt": 1043, "response": "Alpha"}, "69": {"stimulus": 66, "trial": 69, "rt": 880, "response": "Beta"}, "80": {"stimulus": 72, "trial": 80, "rt": 870, "response": "Beta"}, "52": {"stimulus": 42, "trial": 52, "rt": 1167, "response": "Beta"}, "53": {"stimulus": 21, "trial": 53, "rt": 1468, "response": "Alpha"}, "24": {"stimulus": 62, "trial": 24, "rt": 1556, "response": "Beta"}, "25": {"stimulus": 31, "trial": 25, "rt": 1569, "response": "Alpha"}, "26": {"stimulus": 15, "trial": 26, "rt": 1138, "response": "Alpha"}, "27": {"stimulus": 55, "trial": 27, "rt": 930, "response": "Alpha"}, "20": {"stimulus": 49, "trial": 20, "rt": 546, "response": "Beta"}, "21": {"stimulus": 45, "trial": 21, "rt": 842, "response": "Beta"}, "22": {"stimulus": 4, "trial": 22, "rt": 1320, "response": "Alpha"}, "23": {"stimulus": 76, "trial": 23, "rt": 1044, "response": "Beta"}, "46": {"stimulus": 41, "trial": 46, "rt": 1234, "response": "Beta"}, "47": {"stimulus": 12, "trial": 47, "rt": 1136, "response": "Alpha"}, "44": {"stimulus": 3, "trial": 44, "rt": 1012, "response": "Alpha"}, "45": {"stimulus": 27, "trial": 45, "rt": 3166, "response": "Alpha"}, "28": {"stimulus": 69, "trial": 28, "rt": 1503, "response": "Beta"}, "29": {"stimulus": 44, "trial": 29, "rt": 1291, "response": "Alpha"}, "40": {"stimulus": 65, "trial": 40, "rt": 1035, "response": "Beta"}, "41": {"stimulus": 17, "trial": 41, "rt": 1751, "response": "Alpha"}, "1": {"stimulus": 67, "trial": 1, "rt": 957, "response": "Beta"}, "0": {"stimulus": 47, "trial": 0, "rt": 2160, "response": "Beta"}, "3": {"stimulus": 1, "trial": 3, "rt": 1095, "response": "Alpha"}, "2": {"stimulus": 9, "trial": 2, "rt": 1890, "response": "Alpha"}, "5": {"stimulus": 30, "trial": 5, "rt": 2783, "response": "Alpha"}, "4": {"stimulus": 64, "trial": 4, "rt": 2009, "response": "Beta"}, "7": {"stimulus": 63, "trial": 7, "rt": 712, "response": "Beta"}, "6": {"stimulus": 74, "trial": 6, "rt": 1319, "response": "Beta"}, "9": {"stimulus": 35, "trial": 9, "rt": 2609, "response": "Alpha"}, "8": {"stimulus": 20, "trial": 8, "rt": 1369, "response": "Alpha"}, "78": {"stimulus": 37, "trial": 78, "rt": 1567, "response": "Beta"}, "51": {"stimulus": 13, "trial": 51, "rt": 2154, "response": "Alpha"}, "39": {"stimulus": 56, "trial": 39, "rt": 1076, "response": "Beta"}, "65": {"stimulus": 26, "trial": 65, "rt": 1528, "response": "Alpha"}, "76": {"stimulus": 11, "trial": 76, "rt": 933, "response": "Alpha"}, "75": {"stimulus": 46, "trial": 75, "rt": 870, "response": "Beta"}, "38": {"stimulus": 7, "trial": 38, "rt": 1456, "response": "Alpha"}, "73": {"stimulus": 2, "trial": 73, "rt": 642, "response": "Alpha"}, "72": {"stimulus": 14, "trial": 72, "rt": 1029, "response": "Alpha"}, "71": {"stimulus": 34, "trial": 71, "rt": 1333, "response": "Alpha"}, "70": {"stimulus": 50, "trial": 70, "rt": 596, "response": "Beta"}, "59": {"stimulus": 58, "trial": 59, "rt": 587, "response": "Beta"}, "79": {"stimulus": 28, "trial": 79, "rt": 2558, "response": "Alpha"}, "58": {"stimulus": 52, "trial": 58, "rt": 685, "response": "Beta"}, "11": {"stimulus": 43, "trial": 11, "rt": 1056, "response": "Beta"}, "10": {"stimulus": 0, "trial": 10, "rt": 892, "response": "Alpha"}, "13": {"stimulus": 40, "trial": 13, "rt": 570, "response": "Beta"}, "12": {"stimulus": 71, "trial": 12, "rt": 938, "response": "Beta"}, "15": {"stimulus": 33, "trial": 15, "rt": 1098, "response": "Beta"}, "14": {"stimulus": 23, "trial": 14, "rt": 1635, "response": "Alpha"}, "17": {"stimulus": 29, "trial": 17, "rt": 633, "response": "Beta"}, "16": {"stimulus": 51, "trial": 16, "rt": 892, "response": "Beta"}, "19": {"stimulus": 61, "trial": 19, "rt": 877, "response": "Beta"}, "18": {"stimulus": 8, "trial": 18, "rt": 937, "response": "Alpha"}, "31": {"stimulus": 53, "trial": 31, "rt": 740, "response": "Beta"}, "30": {"stimulus": 10, "trial": 30, "rt": 1069, "response": "Alpha"}, "37": {"stimulus": 77, "trial": 37, "rt": 892, "response": "Beta"}, "36": {"stimulus": 39, "trial": 36, "rt": 815, "response": "Beta"}, "35": {"stimulus": 19, "trial": 35, "rt": 688, "response": "Alpha"}, "34": {"stimulus": 6, "trial": 34, "rt": 1074, "response": "Alpha"}, "33": {"stimulus": 24, "trial": 33, "rt": 1076, "response": "Alpha"}, "55": {"stimulus": 59, "trial": 55, "rt": 721, "response": "Beta"}, "74": {"stimulus": 22, "trial": 74, "rt": 1001, "response": "Alpha"}, "32": {"stimulus": 36, "trial": 32, "rt": 1988, "response": "Beta"}, "57": {"stimulus": 75, "trial": 57, "rt": 615, "response": "Beta"}, "50": {"stimulus": 78, "trial": 50, "rt": 984, "response": "Beta"}}}