{"generation": {"1": {"stimulus": 45, "trial": 1, "rt": 8945}, "0": {"stimulus": 18, "trial": 0, "rt": 30146}, "3": {"stimulus": 46, "trial": 3, "rt": 5871}, "2": {"stimulus": 19, "trial": 2, "rt": 10266}}, "info": {"finish": 1488822636122, "participant": 128, "exposed": true, "lab": false, "start": 1488822353677, "counterbalance": 0, "condition": "XOR", "browser": {"platform": "MacIntel", "userAgent": "Mozilla/5.0 (Macintosh; Intel Mac OS X 10_10_5) AppleWebKit/537.36 (KHTML, like Gecko) Chrome/56.0.2924.87 Safari/537.36"}}, "experiment": {"Paradigm": "TACL", "Stimuli": "Size-Color Squares", "Experiment": "Generating-Categories"}, "observation": {"11": {"stimulus": 80, "trial": 11, "rt": 1730}, "10": {"stimulus": 10, "trial": 10, "rt": 1419}, "1": {"stimulus": 70, "trial": 1, "rt": 3620}, "0": {"stimulus": 80, "trial": 0, "rt": 6198}, "3": {"stimulus": 10, "trial": 3, "rt": 3081}, "2": {"stimulus": 0, "trial": 2, "rt": 4321}, "5": {"stimulus": 0, "trial": 5, "rt": 2279}, "4": {"stimulus": 10, "trial": 4, "rt": 3206}, "7": {"stimulus": 70, "trial": 7, "rt": 2193}, "6": {"stimulus": 80, "trial": 6, "rt": 2651}, "9": {"stimulus": 70, "trial": 9, "rt": 1902}, "8": {"stimulus": 0, "trial": 8, "rt": 1768}}, "generalization": {"56": {"stimulus": 8, "trial": 56, "rt": 605, "response": "Beta"}, "77": {"stimulus": 39, "trial": 77, "rt": 1166, "response": "Beta"}, "54": {"stimulus": 3, "trial": 54, "rt": 1037, "response": "Beta"}, "42": {"stimulus": 61, "trial": 42, "rt": 730, "response": "Alpha"}, "48": {"stimulus": 31, "trial": 48, "rt": 637, "response": "Beta"}, "43": {"stimulus": 9, "trial": 43, "rt": 1120, "response": "Alpha"}, "60": {"stimulus": 30, "trial": 60, "rt": 1346, "response": "Beta"}, "61": {"stimulus": 72, "trial": 61, "rt": 1332, "response": "Beta"}, "62": {"stimulus": 77, "trial": 62, "rt": 1550, "response": "Alpha"}, "63": {"stimulus": 45, "trial": 63, "rt": 809, "response": "Beta"}, "64": {"stimulus": 63, "trial": 64, "rt": 599, "response": "Beta"}, "49": {"stimulus": 24, "trial": 49, "rt": 841, "response": "Beta"}, "66": {"stimulus": 20, "trial": 66, "rt": 1018, "response": "Beta"}, "67": {"stimulus": 78, "trial": 67, "rt": 1676, "response": "Alpha"}, "68": {"stimulus": 80, "trial": 68, "rt": 1112, "response": "Beta"}, "69": {"stimulus": 50, "trial": 69, "rt": 1660, "response": "Beta"}, "80": {"stimulus": 75, "trial": 80, "rt": 968, "response": "Alpha"}, "52": {"stimulus": 17, "trial": 52, "rt": 944, "response": "Beta"}, "53": {"stimulus": 40, "trial": 53, "rt": 801, "response": "Beta"}, "24": {"stimulus": 38, "trial": 24, "rt": 1269, "response": "Beta"}, "25": {"stimulus": 47, "trial": 25, "rt": 1800, "response": "Beta"}, "26": {"stimulus": 14, "trial": 26, "rt": 1115, "response": "Beta"}, "27": {"stimulus": 71, "trial": 27, "rt": 1035, "response": "Alpha"}, "20": {"stimulus": 10, "trial": 20, "rt": 1441, "response": "Alpha"}, "21": {"stimulus": 68, "trial": 21, "rt": 1346, "response": "Alpha"}, "22": {"stimulus": 56, "trial": 22, "rt": 1175, "response": "Beta"}, "23": {"stimulus": 5, "trial": 23, "rt": 1426, "response": "Beta"}, "46": {"stimulus": 22, "trial": 46, "rt": 647, "response": "Beta"}, "47": {"stimulus": 52, "trial": 47, "rt": 1153, "response": "Beta"}, "44": {"stimulus": 57, "trial": 44, "rt": 1225, "response": "Beta"}, "45": {"stimulus": 26, "trial": 45, "rt": 1284, "response": "Beta"}, "28": {"stimulus": 59, "trial": 28, "rt": 1723, "response": "Alpha"}, "29": {"stimulus": 1, "trial": 29, "rt": 1575, "response": "Alpha"}, "40": {"stimulus": 69, "trial": 40, "rt": 1136, "response": "Alpha"}, "41": {"stimulus": 60, "trial": 41, "rt": 1052, "response": "Alpha"}, "1": {"stimulus": 70, "trial": 1, "rt": 3414, "response": "Beta"}, "0": {"stimulus": 66, "trial": 0, "rt": 1487, "response": "Alpha"}, "3": {"stimulus": 13, "trial": 3, "rt": 989, "response": "Alpha"}, "2": {"stimulus": 12, "trial": 2, "rt": 1706, "response": "Alpha"}, "5": {"stimulus": 35, "trial": 5, "rt": 1519, "response": "Beta"}, "4": {"stimulus": 27, "trial": 4, "rt": 1107, "response": "Beta"}, "7": {"stimulus": 62, "trial": 7, "rt": 1087, "response": "Alpha"}, "6": {"stimulus": 43, "trial": 6, "rt": 1077, "response": "Beta"}, "9": {"stimulus": 64, "trial": 9, "rt": 1863, "response": "Beta"}, "8": {"stimulus": 16, "trial": 8, "rt": 1403, "response": "Beta"}, "78": {"stimulus": 25, "trial": 78, "rt": 2113, "response": "Beta"}, "51": {"stimulus": 42, "trial": 51, "rt": 676, "response": "Beta"}, "39": {"stimulus": 23, "trial": 39, "rt": 1120, "response": "Beta"}, "65": {"stimulus": 58, "trial": 65, "rt": 1411, "response": "Beta"}, "76": {"stimulus": 51, "trial": 76, "rt": 943, "response": "Beta"}, "75": {"stimulus": 76, "trial": 75, "rt": 2135, "response": "Alpha"}, "38": {"stimulus": 65, "trial": 38, "rt": 1004, "response": "Beta"}, "73": {"stimulus": 15, "trial": 73, "rt": 856, "response": "Beta"}, "72": {"stimulus": 44, "trial": 72, "rt": 1058, "response": "Beta"}, "71": {"stimulus": 36, "trial": 71, "rt": 1207, "response": "Beta"}, "70": {"stimulus": 34, "trial": 70, "rt": 910, "response": "Beta"}, "59": {"stimulus": 79, "trial": 59, "rt": 1128, "response": "Alpha"}, "79": {"stimulus": 67, "trial": 79, "rt": 957, "response": "Beta"}, "58": {"stimulus": 54, "trial": 58, "rt": 1535, "response": "Beta"}, "11": {"stimulus": 6, "trial": 11, "rt": 1574, "response": "Beta"}, "10": {"stimulus": 73, "trial": 10, "rt": 934, "response": "Beta"}, "13": {"stimulus": 4, "trial": 13, "rt": 1136, "response": "Beta"}, "12": {"stimulus": 11, "trial": 12, "rt": 980, "response": "Alpha"}, "15": {"stimulus": 49, "trial": 15, "rt": 2527, "response": "Alpha"}, "14": {"stimulus": 18, "trial": 14, "rt": 1706, "response": "Beta"}, "17": {"stimulus": 21, "trial": 17, "rt": 1262, "response": "Beta"}, "16": {"stimulus": 37, "trial": 16, "rt": 1223, "response": "Beta"}, "19": {"stimulus": 55, "trial": 19, "rt": 1942, "response": "Beta"}, "18": {"stimulus": 0, "trial": 18, "rt": 1128, "response": "Alpha"}, "31": {"stimulus": 28, "trial": 31, "rt": 677, "response": "Beta"}, "30": {"stimulus": 19, "trial": 30, "rt": 967, "response": "Beta"}, "37": {"stimulus": 74, "trial": 37, "rt": 1752, "response": "Beta"}, "36": {"stimulus": 32, "trial": 36, "rt": 1394, "response": "Beta"}, "35": {"stimulus": 29, "trial": 35, "rt": 1363, "response": "Beta"}, "34": {"stimulus": 48, "trial": 34, "rt": 1394, "response": "Alpha"}, "33": {"stimulus": 41, "trial": 33, "rt": 1114, "response": "Beta"}, "55": {"stimulus": 7, "trial": 55, "rt": 833, "response": "Beta"}, "74": {"stimulus": 33, "trial": 74, "rt": 1034, "response": "Beta"}, "32": {"stimulus": 53, "trial": 32, "rt": 1925, "response": "Beta"}, "57": {"stimulus": 2, "trial": 57, "rt": 552, "response": "Beta"}, "50": {"stimulus": 46, "trial": 50, "rt": 989, "response": "Beta"}}}