{"generation": {"1": {"stimulus": 0, "trial": 1, "rt": 6046}, "0": {"stimulus": 72, "trial": 0, "rt": 19134}, "3": {"stimulus": 63, "trial": 3, "rt": 6628}, "2": {"stimulus": 18, "trial": 2, "rt": 6741}}, "info": {"finish": 1488822042628, "participant": 13, "exposed": true, "lab": false, "start": 1488821812120, "counterbalance": 0, "condition": "Cluster", "browser": {"platform": "MacIntel", "userAgent": "Mozilla/5.0 (Macintosh; Intel Mac OS X 10_12_1) AppleWebKit/537.36 (KHTML, like Gecko) Chrome/56.0.2924.87 Safari/537.36"}}, "experiment": {"Paradigm": "TACL", "Stimuli": "Size-Color Squares", "Experiment": "Generating-Categories"}, "observation": {"11": {"stimulus": 34, "trial": 11, "rt": 929}, "10": {"stimulus": 14, "trial": 10, "rt": 2287}, "1": {"stimulus": 34, "trial": 1, "rt": 1517}, "0": {"stimulus": 14, "trial": 0, "rt": 2442}, "3": {"stimulus": 32, "trial": 3, "rt": 1334}, "2": {"stimulus": 16, "trial": 2, "rt": 1353}, "5": {"stimulus": 16, "trial": 5, "rt": 1377}, "4": {"stimulus": 32, "trial": 4, "rt": 1213}, "7": {"stimulus": 14, "trial": 7, "rt": 1066}, "6": {"stimulus": 34, "trial": 6, "rt": 1222}, "9": {"stimulus": 32, "trial": 9, "rt": 2393}, "8": {"stimulus": 16, "trial": 8, "rt": 1021}}, "generalization": {"56": {"stimulus": 46, "trial": 56, "rt": 1679, "response": "Beta"}, "77": {"stimulus": 29, "trial": 77, "rt": 564, "response": "Alpha"}, "54": {"stimulus": 28, "trial": 54, "rt": 725, "response": "Beta"}, "42": {"stimulus": 75, "trial": 42, "rt": 1021, "response": "Alpha"}, "48": {"stimulus": 43, "trial": 48, "rt": 572, "response": "Alpha"}, "43": {"stimulus": 41, "trial": 43, "rt": 589, "response": "Alpha"}, "60": {"stimulus": 59, "trial": 60, "rt": 1225, "response": "Alpha"}, "61": {"stimulus": 27, "trial": 61, "rt": 1406, "response": "Beta"}, "62": {"stimulus": 31, "trial": 62, "rt": 1010, "response": "Alpha"}, "63": {"stimulus": 9, "trial": 63, "rt": 1254, "response": "Beta"}, "64": {"stimulus": 47, "trial": 64, "rt": 1304, "response": "Alpha"}, "49": {"stimulus": 77, "trial": 49, "rt": 596, "response": "Alpha"}, "66": {"stimulus": 57, "trial": 66, "rt": 893, "response": "Alpha"}, "67": {"stimulus": 7, "trial": 67, "rt": 581, "response": "Alpha"}, "68": {"stimulus": 71, "trial": 68, "rt": 632, "response": "Alpha"}, "69": {"stimulus": 53, "trial": 69, "rt": 957, "response": "Alpha"}, "80": {"stimulus": 70, "trial": 80, "rt": 1142, "response": "Alpha"}, "52": {"stimulus": 25, "trial": 52, "rt": 1262, "response": "Alpha"}, "53": {"stimulus": 0, "trial": 53, "rt": 1445, "response": "Beta"}, "24": {"stimulus": 15, "trial": 24, "rt": 788, "response": "Alpha"}, "25": {"stimulus": 33, "trial": 25, "rt": 537, "response": "Alpha"}, "26": {"stimulus": 21, "trial": 26, "rt": 621, "response": "Alpha"}, "27": {"stimulus": 14, "trial": 27, "rt": 685, "response": "Alpha"}, "20": {"stimulus": 48, "trial": 20, "rt": 621, "response": "Alpha"}, "21": {"stimulus": 67, "trial": 21, "rt": 1141, "response": "Alpha"}, "22": {"stimulus": 78, "trial": 22, "rt": 1178, "response": "Alpha"}, "23": {"stimulus": 36, "trial": 23, "rt": 1126, "response": "Alpha"}, "46": {"stimulus": 13, "trial": 46, "rt": 737, "response": "Alpha"}, "47": {"stimulus": 11, "trial": 47, "rt": 1038, "response": "Alpha"}, "44": {"stimulus": 40, "trial": 44, "rt": 757, "response": "Alpha"}, "45": {"stimulus": 65, "trial": 45, "rt": 909, "response": "Alpha"}, "28": {"stimulus": 35, "trial": 28, "rt": 674, "response": "Alpha"}, "29": {"stimulus": 62, "trial": 29, "rt": 675, "response": "Alpha"}, "40": {"stimulus": 50, "trial": 40, "rt": 829, "response": "Alpha"}, "41": {"stimulus": 38, "trial": 41, "rt": 1105, "response": "Beta"}, "1": {"stimulus": 26, "trial": 1, "rt": 1089, "response": "Alpha"}, "0": {"stimulus": 55, "trial": 0, "rt": 1799, "response": "Beta"}, "3": {"stimulus": 22, "trial": 3, "rt": 1069, "response": "Alpha"}, "2": {"stimulus": 6, "trial": 2, "rt": 1038, "response": "Alpha"}, "5": {"stimulus": 49, "trial": 5, "rt": 757, "response": "Alpha"}, "4": {"stimulus": 69, "trial": 4, "rt": 897, "response": "Alpha"}, "7": {"stimulus": 76, "trial": 7, "rt": 969, "response": "Alpha"}, "6": {"stimulus": 56, "trial": 6, "rt": 1181, "response": "Alpha"}, "9": {"stimulus": 2, "trial": 9, "rt": 781, "response": "Alpha"}, "8": {"stimulus": 80, "trial": 8, "rt": 949, "response": "Alpha"}, "78": {"stimulus": 4, "trial": 78, "rt": 588, "response": "Alpha"}, "51": {"stimulus": 63, "trial": 51, "rt": 1121, "response": "Beta"}, "39": {"stimulus": 17, "trial": 39, "rt": 1053, "response": "Alpha"}, "65": {"stimulus": 19, "trial": 65, "rt": 919, "response": "Alpha"}, "76": {"stimulus": 44, "trial": 76, "rt": 681, "response": "Alpha"}, "75": {"stimulus": 30, "trial": 75, "rt": 508, "response": "Alpha"}, "38": {"stimulus": 73, "trial": 38, "rt": 1210, "response": "Beta"}, "73": {"stimulus": 12, "trial": 73, "rt": 6955, "response": "Alpha"}, "72": {"stimulus": 5, "trial": 72, "rt": 637, "response": "Alpha"}, "71": {"stimulus": 32, "trial": 71, "rt": 1217, "response": "Alpha"}, "70": {"stimulus": 79, "trial": 70, "rt": 1350, "response": "Alpha"}, "59": {"stimulus": 18, "trial": 59, "rt": 1295, "response": "Beta"}, "79": {"stimulus": 72, "trial": 79, "rt": 1522, "response": "Beta"}, "58": {"stimulus": 8, "trial": 58, "rt": 838, "response": "Alpha"}, "11": {"stimulus": 20, "trial": 11, "rt": 1206, "response": "Beta"}, "10": {"stimulus": 74, "trial": 10, "rt": 1034, "response": "Beta"}, "13": {"stimulus": 68, "trial": 13, "rt": 677, "response": "Alpha"}, "12": {"stimulus": 61, "trial": 12, "rt": 1002, "response": "Alpha"}, "15": {"stimulus": 23, "trial": 15, "rt": 853, "response": "Alpha"}, "14": {"stimulus": 3, "trial": 14, "rt": 572, "response": "Alpha"}, "17": {"stimulus": 10, "trial": 17, "rt": 1594, "response": "Beta"}, "16": {"stimulus": 39, "trial": 16, "rt": 579, "response": "Alpha"}, "19": {"stimulus": 16, "trial": 19, "rt": 965, "response": "Alpha"}, "18": {"stimulus": 45, "trial": 18, "rt": 965, "response": "Beta"}, "31": {"stimulus": 42, "trial": 31, "rt": 694, "response": "Alpha"}, "30": {"stimulus": 66, "trial": 30, "rt": 789, "response": "Alpha"}, "37": {"stimulus": 52, "trial": 37, "rt": 452, "response": "Alpha"}, "36": {"stimulus": 51, "trial": 36, "rt": 989, "response": "Alpha"}, "35": {"stimulus": 64, "trial": 35, "rt": 1045, "response": "Beta"}, "34": {"stimulus": 1, "trial": 34, "rt": 1723, "response": "Beta"}, "33": {"stimulus": 34, "trial": 33, "rt": 941, "response": "Alpha"}, "55": {"stimulus": 60, "trial": 55, "rt": 993, "response": "Alpha"}, "74": {"stimulus": 58, "trial": 74, "rt": 645, "response": "Alpha"}, "32": {"stimulus": 54, "trial": 32, "rt": 1249, "response": "Beta"}, "57": {"stimulus": 37, "trial": 57, "rt": 906, "response": "Beta"}, "50": {"stimulus": 24, "trial": 50, "rt": 533, "response": "Alpha"}}}