{"generation": {"1": {"stimulus": 6, "trial": 1, "rt": 6385}, "0": {"stimulus": 8, "trial": 0, "rt": 9667}, "3": {"stimulus": 23, "trial": 3, "rt": 2841}, "2": {"stimulus": 17, "trial": 2, "rt": 4740}}, "info": {"finish": 1488823135340, "participant": 131, "exposed": true, "lab": false, "start": 1488822350615, "counterbalance": 3, "condition": "Cluster", "browser": {"platform": "Win32", "userAgent": "Mozilla/5.0 (Windows NT 6.0) AppleWebKit/537.36 (KHTML, like Gecko) Chrome/49.0.2623.112 Safari/537.36"}}, "experiment": {"Paradigm": "TACL", "Stimuli": "Size-Color Squares", "Experiment": "Generating-Categories"}, "observation": {"11": {"stimulus": 32, "trial": 11, "rt": 918}, "10": {"stimulus": 16, "trial": 10, "rt": 918}, "1": {"stimulus": 32, "trial": 1, "rt": 1243}, "0": {"stimulus": 14, "trial": 0, "rt": 1538}, "3": {"stimulus": 16, "trial": 3, "rt": 928}, "2": {"stimulus": 34, "trial": 2, "rt": 1028}, "5": {"stimulus": 32, "trial": 5, "rt": 1100}, "4": {"stimulus": 34, "trial": 4, "rt": 1172}, "7": {"stimulus": 14, "trial": 7, "rt": 1040}, "6": {"stimulus": 16, "trial": 6, "rt": 1546}, "9": {"stimulus": 14, "trial": 9, "rt": 968}, "8": {"stimulus": 34, "trial": 8, "rt": 1089}}, "generalization": {"56": {"stimulus": 25, "trial": 56, "rt": 783, "response": "Beta"}, "77": {"stimulus": 57, "trial": 77, "rt": 1105, "response": "Alpha"}, "54": {"stimulus": 60, "trial": 54, "rt": 1151, "response": "Beta"}, "42": {"stimulus": 72, "trial": 42, "rt": 1991, "response": "Alpha"}, "48": {"stimulus": 54, "trial": 48, "rt": 856, "response": "Alpha"}, "43": {"stimulus": 41, "trial": 43, "rt": 715, "response": "Beta"}, "60": {"stimulus": 37, "trial": 60, "rt": 931, "response": "Alpha"}, "61": {"stimulus": 15, "trial": 61, "rt": 692, "response": "Beta"}, "62": {"stimulus": 35, "trial": 62, "rt": 574, "response": "Beta"}, "63": {"stimulus": 65, "trial": 63, "rt": 681, "response": "Alpha"}, "64": {"stimulus": 27, "trial": 64, "rt": 942, "response": "Alpha"}, "49": {"stimulus": 28, "trial": 49, "rt": 1235, "response": "Alpha"}, "66": {"stimulus": 8, "trial": 66, "rt": 796, "response": "Beta"}, "67": {"stimulus": 64, "trial": 67, "rt": 796, "response": "Alpha"}, "68": {"stimulus": 6, "trial": 68, "rt": 967, "response": "Beta"}, "69": {"stimulus": 45, "trial": 69, "rt": 820, "response": "Alpha"}, "80": {"stimulus": 7, "trial": 80, "rt": 816, "response": "Alpha"}, "52": {"stimulus": 12, "trial": 52, "rt": 1314, "response": "Alpha"}, "53": {"stimulus": 47, "trial": 53, "rt": 2018, "response": "Alpha"}, "24": {"stimulus": 2, "trial": 24, "rt": 797, "response": "Alpha"}, "25": {"stimulus": 34, "trial": 25, "rt": 897, "response": "Beta"}, "26": {"stimulus": 62, "trial": 26, "rt": 694, "response": "Beta"}, "27": {"stimulus": 78, "trial": 27, "rt": 612, "response": "Beta"}, "20": {"stimulus": 16, "trial": 20, "rt": 847, "response": "Alpha"}, "21": {"stimulus": 5, "trial": 21, "rt": 1000, "response": "Alpha"}, "22": {"stimulus": 76, "trial": 22, "rt": 1119, "response": "Alpha"}, "23": {"stimulus": 44, "trial": 23, "rt": 948, "response": "Beta"}, "46": {"stimulus": 50, "trial": 46, "rt": 1041, "response": "Beta"}, "47": {"stimulus": 61, "trial": 47, "rt": 766, "response": "Beta"}, "44": {"stimulus": 74, "trial": 44, "rt": 1830, "response": "Alpha"}, "45": {"stimulus": 56, "trial": 45, "rt": 1066, "response": "Alpha"}, "28": {"stimulus": 51, "trial": 28, "rt": 866, "response": "Alpha"}, "29": {"stimulus": 19, "trial": 29, "rt": 598397, "response": "Alpha"}, "40": {"stimulus": 18, "trial": 40, "rt": 611, "response": "Alpha"}, "41": {"stimulus": 66, "trial": 41, "rt": 846, "response": "Alpha"}, "1": {"stimulus": 75, "trial": 1, "rt": 1614, "response": "Alpha"}, "0": {"stimulus": 46, "trial": 0, "rt": 1657, "response": "Beta"}, "3": {"stimulus": 80, "trial": 3, "rt": 899, "response": "Alpha"}, "2": {"stimulus": 58, "trial": 2, "rt": 745, "response": "Alpha"}, "5": {"stimulus": 23, "trial": 5, "rt": 615, "response": "Alpha"}, "4": {"stimulus": 21, "trial": 4, "rt": 684, "response": "Alpha"}, "7": {"stimulus": 9, "trial": 7, "rt": 675, "response": "Alpha"}, "6": {"stimulus": 71, "trial": 6, "rt": 664, "response": "Beta"}, "9": {"stimulus": 10, "trial": 9, "rt": 969, "response": "Alpha"}, "8": {"stimulus": 59, "trial": 8, "rt": 684, "response": "Beta"}, "78": {"stimulus": 70, "trial": 78, "rt": 739, "response": "Beta"}, "51": {"stimulus": 42, "trial": 51, "rt": 1690, "response": "Beta"}, "39": {"stimulus": 22, "trial": 39, "rt": 1091, "response": "Beta"}, "65": {"stimulus": 48, "trial": 65, "rt": 699, "response": "Alpha"}, "76": {"stimulus": 43, "trial": 76, "rt": 2586, "response": "Beta"}, "75": {"stimulus": 3, "trial": 75, "rt": 1023, "response": "Beta"}, "38": {"stimulus": 33, "trial": 38, "rt": 614, "response": "Beta"}, "73": {"stimulus": 63, "trial": 73, "rt": 574, "response": "Alpha"}, "72": {"stimulus": 11, "trial": 72, "rt": 846, "response": "Alpha"}, "71": {"stimulus": 40, "trial": 71, "rt": 867, "response": "Alpha"}, "70": {"stimulus": 26, "trial": 70, "rt": 786, "response": "Beta"}, "59": {"stimulus": 36, "trial": 59, "rt": 1642, "response": "Alpha"}, "79": {"stimulus": 77, "trial": 79, "rt": 581, "response": "Beta"}, "58": {"stimulus": 79, "trial": 58, "rt": 760, "response": "Beta"}, "11": {"stimulus": 31, "trial": 11, "rt": 1069, "response": "Alpha"}, "10": {"stimulus": 38, "trial": 10, "rt": 746, "response": "Beta"}, "13": {"stimulus": 67, "trial": 13, "rt": 543, "response": "Alpha"}, "12": {"stimulus": 0, "trial": 12, "rt": 654, "response": "Alpha"}, "15": {"stimulus": 69, "trial": 15, "rt": 796, "response": "Beta"}, "14": {"stimulus": 39, "trial": 14, "rt": 462, "response": "Alpha"}, "17": {"stimulus": 68, "trial": 17, "rt": 1029, "response": "Beta"}, "16": {"stimulus": 49, "trial": 16, "rt": 948, "response": "Alpha"}, "19": {"stimulus": 52, "trial": 19, "rt": 694, "response": "Beta"}, "18": {"stimulus": 55, "trial": 18, "rt": 624, "response": "Alpha"}, "31": {"stimulus": 30, "trial": 31, "rt": 553, "response": "Alpha"}, "30": {"stimulus": 1, "trial": 30, "rt": 1038, "response": "Alpha"}, "37": {"stimulus": 17, "trial": 37, "rt": 782, "response": "Beta"}, "36": {"stimulus": 29, "trial": 36, "rt": 847, "response": "Alpha"}, "35": {"stimulus": 53, "trial": 35, "rt": 1019, "response": "Beta"}, "34": {"stimulus": 24, "trial": 34, "rt": 1696, "response": "Beta"}, "33": {"stimulus": 4, "trial": 33, "rt": 2143, "response": "Beta"}, "55": {"stimulus": 20, "trial": 55, "rt": 1032, "response": "Alpha"}, "74": {"stimulus": 32, "trial": 74, "rt": 1223, "response": "Beta"}, "32": {"stimulus": 14, "trial": 32, "rt": 715, "response": "Beta"}, "57": {"stimulus": 73, "trial": 57, "rt": 766, "response": "Alpha"}, "50": {"stimulus": 13, "trial": 50, "rt": 1652, "response": "Beta"}}}