{"generation": {"1": {"stimulus": 80, "trial": 1, "rt": 5090}, "0": {"stimulus": 72, "trial": 0, "rt": 11636}, "3": {"stimulus": 75, "trial": 3, "rt": 2346}, "2": {"stimulus": 76, "trial": 2, "rt": 4425}}, "info": {"finish": 1488822580162, "participant": 132, "exposed": true, "lab": false, "start": 1488822373283, "counterbalance": 3, "condition": "Cluster", "browser": {"platform": "MacIntel", "userAgent": "Mozilla/5.0 (Macintosh; Intel Mac OS X 10_12_3) AppleWebKit/537.36 (KHTML, like Gecko) Chrome/56.0.2924.87 Safari/537.36"}}, "experiment": {"Paradigm": "TACL", "Stimuli": "Size-Color Squares", "Experiment": "Generating-Categories"}, "observation": {"11": {"stimulus": 34, "trial": 11, "rt": 521}, "10": {"stimulus": 16, "trial": 10, "rt": 643}, "1": {"stimulus": 32, "trial": 1, "rt": 998}, "0": {"stimulus": 34, "trial": 0, "rt": 1892}, "3": {"stimulus": 14, "trial": 3, "rt": 703}, "2": {"stimulus": 16, "trial": 2, "rt": 701}, "5": {"stimulus": 32, "trial": 5, "rt": 515}, "4": {"stimulus": 34, "trial": 4, "rt": 691}, "7": {"stimulus": 16, "trial": 7, "rt": 917}, "6": {"stimulus": 14, "trial": 6, "rt": 1100}, "9": {"stimulus": 14, "trial": 9, "rt": 787}, "8": {"stimulus": 32, "trial": 8, "rt": 585}}, "generalization": {"56": {"stimulus": 10, "trial": 56, "rt": 902, "response": "Beta"}, "77": {"stimulus": 21, "trial": 77, "rt": 1843, "response": "Alpha"}, "54": {"stimulus": 56, "trial": 54, "rt": 752, "response": "Beta"}, "42": {"stimulus": 36, "trial": 42, "rt": 505, "response": "Beta"}, "48": {"stimulus": 70, "trial": 48, "rt": 1198, "response": "Beta"}, "43": {"stimulus": 55, "trial": 43, "rt": 914, "response": "Beta"}, "60": {"stimulus": 61, "trial": 60, "rt": 1197, "response": "Beta"}, "61": {"stimulus": 3, "trial": 61, "rt": 1232, "response": "Beta"}, "62": {"stimulus": 25, "trial": 62, "rt": 1162, "response": "Alpha"}, "63": {"stimulus": 51, "trial": 63, "rt": 1349, "response": "Beta"}, "64": {"stimulus": 48, "trial": 64, "rt": 15429, "response": "Beta"}, "49": {"stimulus": 73, "trial": 49, "rt": 685, "response": "Beta"}, "66": {"stimulus": 13, "trial": 66, "rt": 701, "response": "Alpha"}, "67": {"stimulus": 5, "trial": 67, "rt": 1006, "response": "Beta"}, "68": {"stimulus": 58, "trial": 68, "rt": 564, "response": "Beta"}, "69": {"stimulus": 57, "trial": 69, "rt": 587, "response": "Beta"}, "80": {"stimulus": 14, "trial": 80, "rt": 531, "response": "Beta"}, "52": {"stimulus": 41, "trial": 52, "rt": 1180, "response": "Alpha"}, "53": {"stimulus": 6, "trial": 53, "rt": 2488, "response": "Beta"}, "24": {"stimulus": 54, "trial": 24, "rt": 665, "response": "Beta"}, "25": {"stimulus": 2, "trial": 25, "rt": 1328, "response": "Beta"}, "26": {"stimulus": 72, "trial": 26, "rt": 1363, "response": "Beta"}, "27": {"stimulus": 33, "trial": 27, "rt": 821, "response": "Alpha"}, "20": {"stimulus": 7, "trial": 20, "rt": 935, "response": "Alpha"}, "21": {"stimulus": 38, "trial": 21, "rt": 871, "response": "Alpha"}, "22": {"stimulus": 60, "trial": 22, "rt": 519, "response": "Beta"}, "23": {"stimulus": 45, "trial": 23, "rt": 715, "response": "Beta"}, "46": {"stimulus": 20, "trial": 46, "rt": 489, "response": "Alpha"}, "47": {"stimulus": 80, "trial": 47, "rt": 1210, "response": "Beta"}, "44": {"stimulus": 15, "trial": 44, "rt": 1689, "response": "Beta"}, "45": {"stimulus": 35, "trial": 45, "rt": 649, "response": "Alpha"}, "28": {"stimulus": 71, "trial": 28, "rt": 664, "response": "Beta"}, "29": {"stimulus": 46, "trial": 29, "rt": 1300, "response": "Alpha"}, "40": {"stimulus": 12, "trial": 40, "rt": 791, "response": "Beta"}, "41": {"stimulus": 22, "trial": 41, "rt": 505, "response": "Beta"}, "1": {"stimulus": 17, "trial": 1, "rt": 781, "response": "Alpha"}, "0": {"stimulus": 66, "trial": 0, "rt": 1638, "response": "Beta"}, "3": {"stimulus": 28, "trial": 3, "rt": 850, "response": "Alpha"}, "2": {"stimulus": 1, "trial": 2, "rt": 600, "response": "Alpha"}, "5": {"stimulus": 78, "trial": 5, "rt": 1234, "response": "Beta"}, "4": {"stimulus": 62, "trial": 4, "rt": 959, "response": "Beta"}, "7": {"stimulus": 24, "trial": 7, "rt": 791, "response": "Alpha"}, "6": {"stimulus": 49, "trial": 6, "rt": 913, "response": "Alpha"}, "9": {"stimulus": 34, "trial": 9, "rt": 633, "response": "Alpha"}, "8": {"stimulus": 32, "trial": 8, "rt": 628, "response": "Alpha"}, "78": {"stimulus": 79, "trial": 78, "rt": 580, "response": "Beta"}, "51": {"stimulus": 9, "trial": 51, "rt": 1218, "response": "Alpha"}, "39": {"stimulus": 29, "trial": 39, "rt": 586, "response": "Beta"}, "65": {"stimulus": 67, "trial": 65, "rt": 483, "response": "Beta"}, "76": {"stimulus": 69, "trial": 76, "rt": 998, "response": "Beta"}, "75": {"stimulus": 8, "trial": 75, "rt": 1552, "response": "Beta"}, "38": {"stimulus": 0, "trial": 38, "rt": 722, "response": "Beta"}, "73": {"stimulus": 11, "trial": 73, "rt": 1155, "response": "Alpha"}, "72": {"stimulus": 30, "trial": 72, "rt": 1496, "response": "Alpha"}, "71": {"stimulus": 50, "trial": 71, "rt": 426, "response": "Beta"}, "70": {"stimulus": 65, "trial": 70, "rt": 462, "response": "Beta"}, "59": {"stimulus": 42, "trial": 59, "rt": 6353, "response": "Alpha"}, "79": {"stimulus": 16, "trial": 79, "rt": 1222, "response": "Beta"}, "58": {"stimulus": 40, "trial": 58, "rt": 1233, "response": "Alpha"}, "11": {"stimulus": 75, "trial": 11, "rt": 796, "response": "Beta"}, "10": {"stimulus": 4, "trial": 10, "rt": 2594, "response": "Beta"}, "13": {"stimulus": 44, "trial": 13, "rt": 907, "response": "Alpha"}, "12": {"stimulus": 53, "trial": 12, "rt": 1538, "response": "Beta"}, "15": {"stimulus": 27, "trial": 15, "rt": 1165, "response": "Alpha"}, "14": {"stimulus": 63, "trial": 14, "rt": 821, "response": "Beta"}, "17": {"stimulus": 19, "trial": 17, "rt": 1195, "response": "Alpha"}, "16": {"stimulus": 76, "trial": 16, "rt": 602, "response": "Beta"}, "19": {"stimulus": 26, "trial": 19, "rt": 1148, "response": "Alpha"}, "18": {"stimulus": 68, "trial": 18, "rt": 587, "response": "Beta"}, "31": {"stimulus": 64, "trial": 31, "rt": 1270, "response": "Beta"}, "30": {"stimulus": 43, "trial": 30, "rt": 907, "response": "Alpha"}, "37": {"stimulus": 18, "trial": 37, "rt": 711, "response": "Beta"}, "36": {"stimulus": 37, "trial": 36, "rt": 509, "response": "Alpha"}, "35": {"stimulus": 52, "trial": 35, "rt": 709, "response": "Alpha"}, "34": {"stimulus": 39, "trial": 34, "rt": 1245, "response": "Alpha"}, "33": {"stimulus": 47, "trial": 33, "rt": 467, "response": "Beta"}, "55": {"stimulus": 23, "trial": 55, "rt": 867, "response": "Alpha"}, "74": {"stimulus": 31, "trial": 74, "rt": 1199, "response": "Alpha"}, "32": {"stimulus": 74, "trial": 32, "rt": 525, "response": "Beta"}, "57": {"stimulus": 77, "trial": 57, "rt": 669, "response": "Beta"}, "50": {"stimulus": 59, "trial": 50, "rt": 4631, "response": "Beta"}}}