{"generation": {"1": {"stimulus": 8, "trial": 1, "rt": 4457}, "0": {"stimulus": 63, "trial": 0, "rt": 35125}, "3": {"stimulus": 40, "trial": 3, "rt": 3851}, "2": {"stimulus": 79, "trial": 2, "rt": 6656}}, "info": {"finish": 1488822696658, "participant": 133, "exposed": true, "lab": false, "start": 1488822377334, "counterbalance": 2, "condition": "XOR", "browser": {"platform": "Win32", "userAgent": "Mozilla/5.0 (Windows NT 6.1; WOW64) AppleWebKit/537.36 (KHTML, like Gecko) Chrome/56.0.2924.87 Safari/537.36"}}, "experiment": {"Paradigm": "TACL", "Stimuli": "Size-Color Squares", "Experiment": "Generating-Categories"}, "observation": {"11": {"stimulus": 0, "trial": 11, "rt": 1764}, "10": {"stimulus": 10, "trial": 10, "rt": 1925}, "1": {"stimulus": 70, "trial": 1, "rt": 2969}, "0": {"stimulus": 80, "trial": 0, "rt": 8826}, "3": {"stimulus": 10, "trial": 3, "rt": 2370}, "2": {"stimulus": 0, "trial": 2, "rt": 3229}, "5": {"stimulus": 0, "trial": 5, "rt": 2783}, "4": {"stimulus": 10, "trial": 4, "rt": 2526}, "7": {"stimulus": 80, "trial": 7, "rt": 3501}, "6": {"stimulus": 70, "trial": 6, "rt": 2014}, "9": {"stimulus": 80, "trial": 9, "rt": 2192}, "8": {"stimulus": 70, "trial": 8, "rt": 1802}}, "generalization": {"56": {"stimulus": 34, "trial": 56, "rt": 923, "response": "Alpha"}, "77": {"stimulus": 24, "trial": 77, "rt": 704, "response": "Alpha"}, "54": {"stimulus": 75, "trial": 54, "rt": 736, "response": "Alpha"}, "42": {"stimulus": 63, "trial": 42, "rt": 1174, "response": "Beta"}, "48": {"stimulus": 32, "trial": 48, "rt": 762, "response": "Alpha"}, "43": {"stimulus": 31, "trial": 43, "rt": 770, "response": "Alpha"}, "60": {"stimulus": 43, "trial": 60, "rt": 663, "response": "Alpha"}, "61": {"stimulus": 35, "trial": 61, "rt": 1141, "response": "Alpha"}, "62": {"stimulus": 29, "trial": 62, "rt": 737, "response": "Alpha"}, "63": {"stimulus": 69, "trial": 63, "rt": 720, "response": "Alpha"}, "64": {"stimulus": 28, "trial": 64, "rt": 672, "response": "Alpha"}, "49": {"stimulus": 0, "trial": 49, "rt": 883, "response": "Alpha"}, "66": {"stimulus": 64, "trial": 66, "rt": 883, "response": "Alpha"}, "67": {"stimulus": 48, "trial": 67, "rt": 697, "response": "Alpha"}, "68": {"stimulus": 50, "trial": 68, "rt": 648, "response": "Alpha"}, "69": {"stimulus": 61, "trial": 69, "rt": 1223, "response": "Alpha"}, "80": {"stimulus": 16, "trial": 80, "rt": 1408, "response": "Beta"}, "52": {"stimulus": 79, "trial": 52, "rt": 3128, "response": "Alpha"}, "53": {"stimulus": 27, "trial": 53, "rt": 1335, "response": "Beta"}, "24": {"stimulus": 49, "trial": 24, "rt": 1214, "response": "Alpha"}, "25": {"stimulus": 40, "trial": 25, "rt": 696, "response": "Alpha"}, "26": {"stimulus": 17, "trial": 26, "rt": 1107, "response": "Beta"}, "27": {"stimulus": 37, "trial": 27, "rt": 857, "response": "Alpha"}, "20": {"stimulus": 23, "trial": 20, "rt": 849, "response": "Alpha"}, "21": {"stimulus": 5, "trial": 21, "rt": 696, "response": "Alpha"}, "22": {"stimulus": 76, "trial": 22, "rt": 977, "response": "Alpha"}, "23": {"stimulus": 33, "trial": 23, "rt": 2636, "response": "Beta"}, "46": {"stimulus": 1, "trial": 46, "rt": 1754, "response": "Alpha"}, "47": {"stimulus": 66, "trial": 47, "rt": 730, "response": "Alpha"}, "44": {"stimulus": 18, "trial": 44, "rt": 647, "response": "Alpha"}, "45": {"stimulus": 72, "trial": 45, "rt": 1256, "response": "Alpha"}, "28": {"stimulus": 60, "trial": 28, "rt": 1107, "response": "Alpha"}, "29": {"stimulus": 12, "trial": 29, "rt": 712, "response": "Alpha"}, "40": {"stimulus": 52, "trial": 40, "rt": 849, "response": "Alpha"}, "41": {"stimulus": 70, "trial": 41, "rt": 639, "response": "Alpha"}, "1": {"stimulus": 22, "trial": 1, "rt": 3192, "response": "Alpha"}, "0": {"stimulus": 47, "trial": 0, "rt": 2895, "response": "Alpha"}, "3": {"stimulus": 42, "trial": 3, "rt": 2055, "response": "Beta"}, "2": {"stimulus": 10, "trial": 2, "rt": 1740, "response": "Alpha"}, "5": {"stimulus": 53, "trial": 5, "rt": 1473, "response": "Alpha"}, "4": {"stimulus": 77, "trial": 4, "rt": 1376, "response": "Alpha"}, "7": {"stimulus": 59, "trial": 7, "rt": 2561, "response": "Beta"}, "6": {"stimulus": 19, "trial": 6, "rt": 1416, "response": "Alpha"}, "9": {"stimulus": 21, "trial": 9, "rt": 1237, "response": "Alpha"}, "8": {"stimulus": 55, "trial": 8, "rt": 1423, "response": "Alpha"}, "78": {"stimulus": 80, "trial": 78, "rt": 1312, "response": "Alpha"}, "51": {"stimulus": 8, "trial": 51, "rt": 1122, "response": "Beta"}, "39": {"stimulus": 9, "trial": 39, "rt": 1099, "response": "Alpha"}, "65": {"stimulus": 41, "trial": 65, "rt": 519, "response": "Alpha"}, "76": {"stimulus": 4, "trial": 76, "rt": 737, "response": "Alpha"}, "75": {"stimulus": 26, "trial": 75, "rt": 751, "response": "Alpha"}, "38": {"stimulus": 30, "trial": 38, "rt": 785, "response": "Alpha"}, "73": {"stimulus": 78, "trial": 73, "rt": 801, "response": "Alpha"}, "72": {"stimulus": 68, "trial": 72, "rt": 1109, "response": "Beta"}, "71": {"stimulus": 2, "trial": 71, "rt": 907, "response": "Alpha"}, "70": {"stimulus": 62, "trial": 70, "rt": 705, "response": "Alpha"}, "59": {"stimulus": 11, "trial": 59, "rt": 696, "response": "Alpha"}, "79": {"stimulus": 73, "trial": 79, "rt": 769, "response": "Alpha"}, "58": {"stimulus": 38, "trial": 58, "rt": 648, "response": "Alpha"}, "11": {"stimulus": 3, "trial": 11, "rt": 3002, "response": "Alpha"}, "10": {"stimulus": 58, "trial": 10, "rt": 728, "response": "Alpha"}, "13": {"stimulus": 51, "trial": 13, "rt": 1579, "response": "Beta"}, "12": {"stimulus": 67, "trial": 12, "rt": 1585, "response": "Alpha"}, "15": {"stimulus": 46, "trial": 15, "rt": 761, "response": "Alpha"}, "14": {"stimulus": 6, "trial": 14, "rt": 1570, "response": "Beta"}, "17": {"stimulus": 25, "trial": 17, "rt": 1197, "response": "Alpha"}, "16": {"stimulus": 15, "trial": 16, "rt": 1681, "response": "Beta"}, "19": {"stimulus": 36, "trial": 19, "rt": 793, "response": "Alpha"}, "18": {"stimulus": 39, "trial": 18, "rt": 930, "response": "Alpha"}, "31": {"stimulus": 20, "trial": 31, "rt": 3083, "response": "Beta"}, "30": {"stimulus": 56, "trial": 30, "rt": 1240, "response": "Alpha"}, "37": {"stimulus": 65, "trial": 37, "rt": 761, "response": "Alpha"}, "36": {"stimulus": 71, "trial": 36, "rt": 875, "response": "Alpha"}, "35": {"stimulus": 54, "trial": 35, "rt": 1706, "response": "Beta"}, "34": {"stimulus": 7, "trial": 34, "rt": 954, "response": "Beta"}, "33": {"stimulus": 45, "trial": 33, "rt": 811, "response": "Alpha"}, "55": {"stimulus": 14, "trial": 55, "rt": 785, "response": "Alpha"}, "74": {"stimulus": 57, "trial": 74, "rt": 735, "response": "Alpha"}, "32": {"stimulus": 13, "trial": 32, "rt": 1020, "response": "Alpha"}, "57": {"stimulus": 44, "trial": 57, "rt": 478, "response": "Alpha"}, "50": {"stimulus": 74, "trial": 50, "rt": 761, "response": "Alpha"}}}