{"generation": {"1": {"stimulus": 27, "trial": 1, "rt": 2825}, "0": {"stimulus": 35, "trial": 0, "rt": 14363}, "3": {"stimulus": 33, "trial": 3, "rt": 2419}, "2": {"stimulus": 32, "trial": 2, "rt": 3867}}, "info": {"participant": 135, "exposed": true, "lab": false, "start": 1488822377865, "counterbalance": 3, "condition": "XOR", "browser": {"platform": "Win32", "userAgent": "Mozilla/5.0 (Windows NT 6.3; WOW64; rv:50.0) Gecko/20100101 Firefox/50.0"}}, "experiment": {"Paradigm": "TACL", "Stimuli": "Size-Color Squares", "Experiment": "Generating-Categories"}, "observation": {"11": {"stimulus": 0, "trial": 11, "rt": 1108}, "10": {"stimulus": 80, "trial": 10, "rt": 971}, "1": {"stimulus": 80, "trial": 1, "rt": 1412}, "0": {"stimulus": 70, "trial": 0, "rt": 2310}, "3": {"stimulus": 10, "trial": 3, "rt": 1003}, "2": {"stimulus": 0, "trial": 2, "rt": 1643}, "5": {"stimulus": 80, "trial": 5, "rt": 1027}, "4": {"stimulus": 10, "trial": 4, "rt": 961}, "7": {"stimulus": 0, "trial": 7, "rt": 1086}, "6": {"stimulus": 70, "trial": 6, "rt": 882}, "9": {"stimulus": 10, "trial": 9, "rt": 1001}, "8": {"stimulus": 70, "trial": 8, "rt": 14755}}, "generalization": {"56": {"stimulus": 45, "trial": 56, "rt": 819, "response": "Alpha"}, "77": {"stimulus": 20, "trial": 77, "rt": 563, "response": "Beta"}, "54": {"stimulus": 74, "trial": 54, "rt": 459, "response": "Alpha"}, "42": {"stimulus": 4, "trial": 42, "rt": 1052, "response": "Beta"}, "48": {"stimulus": 53, "trial": 48, "rt": 555, "response": "Alpha"}, "43": {"stimulus": 38, "trial": 43, "rt": 1000, "response": "Beta"}, "60": {"stimulus": 50, "trial": 60, "rt": 515, "response": "Alpha"}, "61": {"stimulus": 48, "trial": 61, "rt": 461, "response": "Alpha"}, "62": {"stimulus": 75, "trial": 62, "rt": 450, "response": "Alpha"}, "63": {"stimulus": 60, "trial": 63, "rt": 436, "response": "Alpha"}, "64": {"stimulus": 30, "trial": 64, "rt": 913, "response": "Beta"}, "49": {"stimulus": 44, "trial": 49, "rt": 923, "response": "Beta"}, "66": {"stimulus": 65, "trial": 66, "rt": 795, "response": "Alpha"}, "67": {"stimulus": 79, "trial": 67, "rt": 15857, "response": "Alpha"}, "68": {"stimulus": 41, "trial": 68, "rt": 859, "response": "Beta"}, "69": {"stimulus": 1, "trial": 69, "rt": 1066, "response": "Beta"}, "80": {"stimulus": 3, "trial": 80, "rt": 1033, "response": "Alpha"}, "52": {"stimulus": 55, "trial": 52, "rt": 635, "response": "Alpha"}, "53": {"stimulus": 63, "trial": 53, "rt": 538, "response": "Alpha"}, "24": {"stimulus": 18, "trial": 24, "rt": 1873, "response": "Beta"}, "25": {"stimulus": 26, "trial": 25, "rt": 867, "response": "Beta"}, "26": {"stimulus": 37, "trial": 26, "rt": 753, "response": "Beta"}, "27": {"stimulus": 52, "trial": 27, "rt": 1020, "response": "Alpha"}, "20": {"stimulus": 0, "trial": 20, "rt": 1205, "response": "Alpha"}, "21": {"stimulus": 36, "trial": 21, "rt": 5915, "response": "Beta"}, "22": {"stimulus": 43, "trial": 22, "rt": 1219, "response": "Beta"}, "23": {"stimulus": 57, "trial": 23, "rt": 730, "response": "Alpha"}, "46": {"stimulus": 77, "trial": 46, "rt": 444, "response": "Alpha"}, "47": {"stimulus": 7, "trial": 47, "rt": 819, "response": "Beta"}, "44": {"stimulus": 76, "trial": 44, "rt": 699, "response": "Alpha"}, "45": {"stimulus": 49, "trial": 45, "rt": 483, "response": "Alpha"}, "28": {"stimulus": 58, "trial": 28, "rt": 883, "response": "Alpha"}, "29": {"stimulus": 12, "trial": 29, "rt": 1170, "response": "Beta"}, "40": {"stimulus": 56, "trial": 40, "rt": 532, "response": "Alpha"}, "41": {"stimulus": 42, "trial": 41, "rt": 497, "response": "Alpha"}, "1": {"stimulus": 32, "trial": 1, "rt": 1392, "response": "Beta"}, "0": {"stimulus": 68, "trial": 0, "rt": 1707, "response": "Alpha"}, "3": {"stimulus": 19, "trial": 3, "rt": 1859, "response": "Alpha"}, "2": {"stimulus": 47, "trial": 2, "rt": 1970, "response": "Beta"}, "5": {"stimulus": 22, "trial": 5, "rt": 2268, "response": "Alpha"}, "4": {"stimulus": 28, "trial": 4, "rt": 1371, "response": "Alpha"}, "7": {"stimulus": 51, "trial": 7, "rt": 891, "response": "Alpha"}, "6": {"stimulus": 67, "trial": 6, "rt": 1042, "response": "Alpha"}, "9": {"stimulus": 16, "trial": 9, "rt": 6964, "response": "Beta"}, "8": {"stimulus": 5, "trial": 8, "rt": 1011, "response": "Beta"}, "78": {"stimulus": 69, "trial": 78, "rt": 774, "response": "Alpha"}, "51": {"stimulus": 33, "trial": 51, "rt": 866, "response": "Beta"}, "39": {"stimulus": 71, "trial": 39, "rt": 498, "response": "Alpha"}, "65": {"stimulus": 29, "trial": 65, "rt": 787, "response": "Beta"}, "76": {"stimulus": 35, "trial": 76, "rt": 547, "response": "Beta"}, "75": {"stimulus": 21, "trial": 75, "rt": 660, "response": "Beta"}, "38": {"stimulus": 54, "trial": 38, "rt": 484, "response": "Alpha"}, "73": {"stimulus": 9, "trial": 73, "rt": 737, "response": "Beta"}, "72": {"stimulus": 13, "trial": 72, "rt": 892, "response": "Alpha"}, "71": {"stimulus": 72, "trial": 71, "rt": 687, "response": "Alpha"}, "70": {"stimulus": 14, "trial": 70, "rt": 830, "response": "Alpha"}, "59": {"stimulus": 62, "trial": 59, "rt": 619, "response": "Alpha"}, "79": {"stimulus": 10, "trial": 79, "rt": 786, "response": "Beta"}, "58": {"stimulus": 2, "trial": 58, "rt": 763, "response": "Beta"}, "11": {"stimulus": 6, "trial": 11, "rt": 1082, "response": "Alpha"}, "10": {"stimulus": 25, "trial": 10, "rt": 898, "response": "Beta"}, "13": {"stimulus": 59, "trial": 13, "rt": 988, "response": "Alpha"}, "12": {"stimulus": 64, "trial": 12, "rt": 1162, "response": "Alpha"}, "15": {"stimulus": 8, "trial": 15, "rt": 939, "response": "Beta"}, "14": {"stimulus": 23, "trial": 14, "rt": 867, "response": "Beta"}, "17": {"stimulus": 31, "trial": 17, "rt": 1292, "response": "Beta"}, "16": {"stimulus": 78, "trial": 16, "rt": 1154, "response": "Alpha"}, "19": {"stimulus": 40, "trial": 19, "rt": 1630, "response": "Beta"}, "18": {"stimulus": 39, "trial": 18, "rt": 1028, "response": "Beta"}, "31": {"stimulus": 15, "trial": 31, "rt": 561, "response": "Beta"}, "30": {"stimulus": 24, "trial": 30, "rt": 541, "response": "Beta"}, "37": {"stimulus": 80, "trial": 37, "rt": 676, "response": "Alpha"}, "36": {"stimulus": 27, "trial": 36, "rt": 739, "response": "Beta"}, "35": {"stimulus": 34, "trial": 35, "rt": 874, "response": "Beta"}, "34": {"stimulus": 61, "trial": 34, "rt": 611, "response": "Alpha"}, "33": {"stimulus": 70, "trial": 33, "rt": 10234, "response": "Alpha"}, "55": {"stimulus": 17, "trial": 55, "rt": 724, "response": "Beta"}, "74": {"stimulus": 11, "trial": 74, "rt": 22459, "response": "Beta"}, "32": {"stimulus": 46, "trial": 32, "rt": 563, "response": "Alpha"}, "57": {"stimulus": 66, "trial": 57, "rt": 482, "response": "Alpha"}, "50": {"stimulus": 73, "trial": 50, "rt": 15651, "response": "Alpha"}}}