{"generation": {"1": {"stimulus": 38, "trial": 1, "rt": 5208}, "0": {"stimulus": 72, "trial": 0, "rt": 11852}, "3": {"stimulus": 39, "trial": 3, "rt": 5739}, "2": {"stimulus": 8, "trial": 2, "rt": 7147}}, "info": {"finish": 1488822743068, "participant": 136, "exposed": true, "lab": false, "start": 1488822385316, "counterbalance": 5, "condition": "Cluster", "browser": {"platform": "Win32", "userAgent": "Mozilla/5.0 (Windows NT 10.0; WOW64) AppleWebKit/537.36 (KHTML, like Gecko) Chrome/56.0.2924.87 Safari/537.36"}}, "experiment": {"Paradigm": "TACL", "Stimuli": "Size-Color Squares", "Experiment": "Generating-Categories"}, "observation": {"11": {"stimulus": 14, "trial": 11, "rt": 1124}, "10": {"stimulus": 16, "trial": 10, "rt": 1149}, "1": {"stimulus": 34, "trial": 1, "rt": 1915}, "0": {"stimulus": 32, "trial": 0, "rt": 2056}, "3": {"stimulus": 16, "trial": 3, "rt": 1451}, "2": {"stimulus": 14, "trial": 2, "rt": 1353}, "5": {"stimulus": 14, "trial": 5, "rt": 1187}, "4": {"stimulus": 16, "trial": 4, "rt": 1273}, "7": {"stimulus": 34, "trial": 7, "rt": 1166}, "6": {"stimulus": 32, "trial": 6, "rt": 1043}, "9": {"stimulus": 34, "trial": 9, "rt": 1145}, "8": {"stimulus": 32, "trial": 8, "rt": 1507}}, "generalization": {"56": {"stimulus": 79, "trial": 56, "rt": 595, "response": "Alpha"}, "77": {"stimulus": 63, "trial": 77, "rt": 642, "response": "Beta"}, "54": {"stimulus": 55, "trial": 54, "rt": 743, "response": "Beta"}, "42": {"stimulus": 72, "trial": 42, "rt": 793, "response": "Beta"}, "48": {"stimulus": 5, "trial": 48, "rt": 827, "response": "Alpha"}, "43": {"stimulus": 18, "trial": 43, "rt": 547, "response": "Beta"}, "60": {"stimulus": 59, "trial": 60, "rt": 659, "response": "Alpha"}, "61": {"stimulus": 24, "trial": 61, "rt": 763, "response": "Alpha"}, "62": {"stimulus": 67, "trial": 62, "rt": 1203, "response": "Alpha"}, "63": {"stimulus": 78, "trial": 63, "rt": 126626, "response": "Alpha"}, "64": {"stimulus": 53, "trial": 64, "rt": 897, "response": "Alpha"}, "49": {"stimulus": 3, "trial": 49, "rt": 1018, "response": "Beta"}, "66": {"stimulus": 33, "trial": 66, "rt": 763, "response": "Alpha"}, "67": {"stimulus": 73, "trial": 67, "rt": 667, "response": "Beta"}, "68": {"stimulus": 23, "trial": 68, "rt": 739, "response": "Alpha"}, "69": {"stimulus": 66, "trial": 69, "rt": 634, "response": "Beta"}, "80": {"stimulus": 38, "trial": 80, "rt": 1571, "response": "Beta"}, "52": {"stimulus": 51, "trial": 52, "rt": 625, "response": "Alpha"}, "53": {"stimulus": 6, "trial": 53, "rt": 666, "response": "Alpha"}, "24": {"stimulus": 36, "trial": 24, "rt": 779, "response": "Beta"}, "25": {"stimulus": 57, "trial": 25, "rt": 1195, "response": "Beta"}, "26": {"stimulus": 80, "trial": 26, "rt": 1339, "response": "Alpha"}, "27": {"stimulus": 11, "trial": 27, "rt": 1283, "response": "Beta"}, "20": {"stimulus": 12, "trial": 20, "rt": 1100, "response": "Alpha"}, "21": {"stimulus": 58, "trial": 21, "rt": 14405, "response": "Alpha"}, "22": {"stimulus": 40, "trial": 22, "rt": 650, "response": "Alpha"}, "23": {"stimulus": 39, "trial": 23, "rt": 989, "response": "Beta"}, "46": {"stimulus": 30, "trial": 46, "rt": 843, "response": "Alpha"}, "47": {"stimulus": 43, "trial": 47, "rt": 1115, "response": "Alpha"}, "44": {"stimulus": 10, "trial": 44, "rt": 1172, "response": "Beta"}, "45": {"stimulus": 77, "trial": 45, "rt": 697, "response": "Alpha"}, "28": {"stimulus": 20, "trial": 28, "rt": 594, "response": "Beta"}, "29": {"stimulus": 47, "trial": 29, "rt": 1747, "response": "Beta"}, "40": {"stimulus": 16, "trial": 40, "rt": 1369, "response": "Alpha"}, "41": {"stimulus": 45, "trial": 41, "rt": 876, "response": "Beta"}, "1": {"stimulus": 8, "trial": 1, "rt": 715, "response": "Alpha"}, "0": {"stimulus": 15, "trial": 0, "rt": 1355, "response": "Alpha"}, "3": {"stimulus": 4, "trial": 3, "rt": 1499, "response": "Beta"}, "2": {"stimulus": 1, "trial": 2, "rt": 939, "response": "Beta"}, "5": {"stimulus": 25, "trial": 5, "rt": 2995, "response": "Alpha"}, "4": {"stimulus": 21, "trial": 4, "rt": 1347, "response": "Beta"}, "7": {"stimulus": 71, "trial": 7, "rt": 827, "response": "Beta"}, "6": {"stimulus": 44, "trial": 6, "rt": 2547, "response": "Beta"}, "9": {"stimulus": 29, "trial": 9, "rt": 635, "response": "Beta"}, "8": {"stimulus": 19, "trial": 8, "rt": 977, "response": "Beta"}, "78": {"stimulus": 76, "trial": 78, "rt": 707, "response": "Alpha"}, "51": {"stimulus": 41, "trial": 51, "rt": 667, "response": "Alpha"}, "39": {"stimulus": 69, "trial": 39, "rt": 691, "response": "Alpha"}, "65": {"stimulus": 64, "trial": 65, "rt": 778, "response": "Beta"}, "76": {"stimulus": 65, "trial": 76, "rt": 1114, "response": "Beta"}, "75": {"stimulus": 70, "trial": 75, "rt": 747, "response": "Alpha"}, "38": {"stimulus": 68, "trial": 38, "rt": 667, "response": "Alpha"}, "73": {"stimulus": 74, "trial": 73, "rt": 779, "response": "Beta"}, "72": {"stimulus": 22, "trial": 72, "rt": 546, "response": "Beta"}, "71": {"stimulus": 35, "trial": 71, "rt": 643, "response": "Alpha"}, "70": {"stimulus": 7, "trial": 70, "rt": 683, "response": "Alpha"}, "59": {"stimulus": 13, "trial": 59, "rt": 787, "response": "Alpha"}, "79": {"stimulus": 52, "trial": 79, "rt": 1090, "response": "Alpha"}, "58": {"stimulus": 50, "trial": 58, "rt": 643, "response": "Alpha"}, "11": {"stimulus": 17, "trial": 11, "rt": 850, "response": "Alpha"}, "10": {"stimulus": 42, "trial": 10, "rt": 931, "response": "Alpha"}, "13": {"stimulus": 46, "trial": 13, "rt": 556, "response": "Beta"}, "12": {"stimulus": 56, "trial": 12, "rt": 715, "response": "Beta"}, "15": {"stimulus": 62, "trial": 15, "rt": 1899, "response": "Alpha"}, "14": {"stimulus": 54, "trial": 14, "rt": 612, "response": "Beta"}, "17": {"stimulus": 49, "trial": 17, "rt": 667, "response": "Alpha"}, "16": {"stimulus": 14, "trial": 16, "rt": 1859, "response": "Alpha"}, "19": {"stimulus": 28, "trial": 19, "rt": 452, "response": "Beta"}, "18": {"stimulus": 37, "trial": 18, "rt": 756, "response": "Beta"}, "31": {"stimulus": 26, "trial": 31, "rt": 755, "response": "Alpha"}, "30": {"stimulus": 34, "trial": 30, "rt": 898, "response": "Alpha"}, "37": {"stimulus": 32, "trial": 37, "rt": 866, "response": "Alpha"}, "36": {"stimulus": 9, "trial": 36, "rt": 850, "response": "Beta"}, "35": {"stimulus": 2, "trial": 35, "rt": 1154, "response": "Alpha"}, "34": {"stimulus": 61, "trial": 34, "rt": 2242, "response": "Beta"}, "33": {"stimulus": 27, "trial": 33, "rt": 827, "response": "Beta"}, "55": {"stimulus": 48, "trial": 55, "rt": 1611, "response": "Alpha"}, "74": {"stimulus": 75, "trial": 74, "rt": 1579, "response": "Beta"}, "32": {"stimulus": 31, "trial": 32, "rt": 796, "response": "Alpha"}, "57": {"stimulus": 60, "trial": 57, "rt": 935, "response": "Alpha"}, "50": {"stimulus": 0, "trial": 50, "rt": 611, "response": "Beta"}}}