{"generation": {"1": {"stimulus": 72, "trial": 1, "rt": 10668}, "0": {"stimulus": 0, "trial": 0, "rt": 41934}, "3": {"stimulus": 47, "trial": 3, "rt": 10846}, "2": {"stimulus": 63, "trial": 2, "rt": 16303}}, "info": {"finish": 1488822756915, "participant": 137, "exposed": true, "lab": false, "start": 1488822390020, "counterbalance": 7, "condition": "XOR", "browser": {"platform": "MacIntel", "userAgent": "Mozilla/5.0 (Macintosh; Intel Mac OS X 10_7_5) AppleWebKit/537.36 (KHTML, like Gecko) Chrome/49.0.2623.112 Safari/537.36"}}, "experiment": {"Paradigm": "TACL", "Stimuli": "Size-Color Squares", "Experiment": "Generating-Categories"}, "observation": {"11": {"stimulus": 0, "trial": 11, "rt": 1718}, "10": {"stimulus": 70, "trial": 10, "rt": 1523}, "1": {"stimulus": 0, "trial": 1, "rt": 3498}, "0": {"stimulus": 10, "trial": 0, "rt": 14375}, "3": {"stimulus": 80, "trial": 3, "rt": 4264}, "2": {"stimulus": 70, "trial": 2, "rt": 13665}, "5": {"stimulus": 70, "trial": 5, "rt": 2645}, "4": {"stimulus": 0, "trial": 4, "rt": 4072}, "7": {"stimulus": 10, "trial": 7, "rt": 2024}, "6": {"stimulus": 80, "trial": 6, "rt": 2282}, "9": {"stimulus": 10, "trial": 9, "rt": 1719}, "8": {"stimulus": 80, "trial": 8, "rt": 1710}}, "generalization": {"56": {"stimulus": 61, "trial": 56, "rt": 837, "response": "Alpha"}, "77": {"stimulus": 33, "trial": 77, "rt": 1040, "response": "Alpha"}, "54": {"stimulus": 41, "trial": 54, "rt": 1685, "response": "Alpha"}, "42": {"stimulus": 68, "trial": 42, "rt": 2482, "response": "Alpha"}, "48": {"stimulus": 62, "trial": 48, "rt": 1023, "response": "Alpha"}, "43": {"stimulus": 66, "trial": 43, "rt": 2700, "response": "Alpha"}, "60": {"stimulus": 78, "trial": 60, "rt": 1661, "response": "Alpha"}, "61": {"stimulus": 6, "trial": 61, "rt": 894, "response": "Alpha"}, "62": {"stimulus": 54, "trial": 62, "rt": 1597, "response": "Beta"}, "63": {"stimulus": 19, "trial": 63, "rt": 1106, "response": "Beta"}, "64": {"stimulus": 35, "trial": 64, "rt": 1541, "response": "Alpha"}, "49": {"stimulus": 17, "trial": 49, "rt": 904, "response": "Alpha"}, "66": {"stimulus": 28, "trial": 66, "rt": 1204, "response": "Beta"}, "67": {"stimulus": 39, "trial": 67, "rt": 1828, "response": "Alpha"}, "68": {"stimulus": 65, "trial": 68, "rt": 1552, "response": "Alpha"}, "69": {"stimulus": 18, "trial": 69, "rt": 1499, "response": "Beta"}, "80": {"stimulus": 20, "trial": 80, "rt": 2778, "response": "Alpha"}, "52": {"stimulus": 67, "trial": 52, "rt": 2123, "response": "Alpha"}, "53": {"stimulus": 27, "trial": 53, "rt": 1640, "response": "Beta"}, "24": {"stimulus": 72, "trial": 24, "rt": 1588, "response": "Beta"}, "25": {"stimulus": 45, "trial": 25, "rt": 1116, "response": "Beta"}, "26": {"stimulus": 58, "trial": 26, "rt": 2015, "response": "Alpha"}, "27": {"stimulus": 9, "trial": 27, "rt": 1789, "response": "Beta"}, "20": {"stimulus": 10, "trial": 20, "rt": 1877, "response": "Beta"}, "21": {"stimulus": 26, "trial": 21, "rt": 2753, "response": "Alpha"}, "22": {"stimulus": 53, "trial": 22, "rt": 1062, "response": "Alpha"}, "23": {"stimulus": 14, "trial": 23, "rt": 1196, "response": "Alpha"}, "46": {"stimulus": 52, "trial": 46, "rt": 889, "response": "Alpha"}, "47": {"stimulus": 77, "trial": 47, "rt": 4244, "response": "Alpha"}, "44": {"stimulus": 60, "trial": 44, "rt": 1081, "response": "Alpha"}, "45": {"stimulus": 79, "trial": 45, "rt": 828, "response": "Alpha"}, "28": {"stimulus": 50, "trial": 28, "rt": 2367, "response": "Alpha"}, "29": {"stimulus": 56, "trial": 29, "rt": 1483, "response": "Alpha"}, "40": {"stimulus": 11, "trial": 40, "rt": 2235, "response": "Alpha"}, "41": {"stimulus": 1, "trial": 41, "rt": 1780, "response": "Beta"}, "1": {"stimulus": 80, "trial": 1, "rt": 1768, "response": "Alpha"}, "0": {"stimulus": 29, "trial": 0, "rt": 9796, "response": "Alpha"}, "3": {"stimulus": 73, "trial": 3, "rt": 1674, "response": "Alpha"}, "2": {"stimulus": 64, "trial": 2, "rt": 1947, "response": "Alpha"}, "5": {"stimulus": 24, "trial": 5, "rt": 1584, "response": "Alpha"}, "4": {"stimulus": 51, "trial": 4, "rt": 1492, "response": "Alpha"}, "7": {"stimulus": 55, "trial": 7, "rt": 2298, "response": "Beta"}, "6": {"stimulus": 34, "trial": 6, "rt": 1107, "response": "Alpha"}, "9": {"stimulus": 0, "trial": 9, "rt": 1370, "response": "Beta"}, "8": {"stimulus": 2, "trial": 8, "rt": 2996, "response": "Beta"}, "78": {"stimulus": 15, "trial": 78, "rt": 824, "response": "Alpha"}, "51": {"stimulus": 63, "trial": 51, "rt": 1884, "response": "Beta"}, "39": {"stimulus": 49, "trial": 39, "rt": 885, "response": "Alpha"}, "65": {"stimulus": 37, "trial": 65, "rt": 1803, "response": "Beta"}, "76": {"stimulus": 12, "trial": 76, "rt": 1120, "response": "Alpha"}, "75": {"stimulus": 71, "trial": 75, "rt": 890, "response": "Alpha"}, "38": {"stimulus": 70, "trial": 38, "rt": 1005, "response": "Alpha"}, "73": {"stimulus": 42, "trial": 73, "rt": 915, "response": "Alpha"}, "72": {"stimulus": 48, "trial": 72, "rt": 1019, "response": "Alpha"}, "71": {"stimulus": 22, "trial": 71, "rt": 1061, "response": "Alpha"}, "70": {"stimulus": 30, "trial": 70, "rt": 1747, "response": "Alpha"}, "59": {"stimulus": 46, "trial": 59, "rt": 1373, "response": "Beta"}, "79": {"stimulus": 36, "trial": 79, "rt": 1679, "response": "Beta"}, "58": {"stimulus": 25, "trial": 58, "rt": 925, "response": "Alpha"}, "11": {"stimulus": 23, "trial": 11, "rt": 2763, "response": "Alpha"}, "10": {"stimulus": 43, "trial": 10, "rt": 1859, "response": "Alpha"}, "13": {"stimulus": 8, "trial": 13, "rt": 1000, "response": "Alpha"}, "12": {"stimulus": 38, "trial": 12, "rt": 1607, "response": "Alpha"}, "15": {"stimulus": 5, "trial": 15, "rt": 935, "response": "Alpha"}, "14": {"stimulus": 32, "trial": 14, "rt": 1216, "response": "Alpha"}, "17": {"stimulus": 21, "trial": 17, "rt": 1305, "response": "Alpha"}, "16": {"stimulus": 7, "trial": 16, "rt": 1068, "response": "Alpha"}, "19": {"stimulus": 44, "trial": 19, "rt": 1108, "response": "Alpha"}, "18": {"stimulus": 3, "trial": 18, "rt": 1011, "response": "Alpha"}, "31": {"stimulus": 4, "trial": 31, "rt": 2479, "response": "Alpha"}, "30": {"stimulus": 74, "trial": 30, "rt": 2377, "response": "Alpha"}, "37": {"stimulus": 47, "trial": 37, "rt": 2708, "response": "Alpha"}, "36": {"stimulus": 76, "trial": 36, "rt": 1378, "response": "Alpha"}, "35": {"stimulus": 40, "trial": 35, "rt": 972, "response": "Alpha"}, "34": {"stimulus": 13, "trial": 34, "rt": 988, "response": "Alpha"}, "33": {"stimulus": 75, "trial": 33, "rt": 1492, "response": "Alpha"}, "55": {"stimulus": 31, "trial": 55, "rt": 1033, "response": "Alpha"}, "74": {"stimulus": 69, "trial": 74, "rt": 868, "response": "Alpha"}, "32": {"stimulus": 57, "trial": 32, "rt": 1189, "response": "Alpha"}, "57": {"stimulus": 16, "trial": 57, "rt": 1037, "response": "Alpha"}, "50": {"stimulus": 59, "trial": 50, "rt": 1193, "response": "Alpha"}}}