{"generation": {"1": {"stimulus": 1, "trial": 1, "rt": 7611}, "0": {"stimulus": 0, "trial": 0, "rt": 14970}, "3": {"stimulus": 10, "trial": 3, "rt": 5739}, "2": {"stimulus": 9, "trial": 2, "rt": 5850}}, "info": {"participant": 138, "exposed": true, "lab": false, "start": 1488822392877, "counterbalance": 5, "condition": "Row", "browser": {"platform": "Win32", "userAgent": "Mozilla/5.0 (Windows NT 6.1; rv:51.0) Gecko/20100101 Firefox/51.0"}}, "experiment": {"Paradigm": "TACL", "Stimuli": "Size-Color Squares", "Experiment": "Generating-Categories"}, "observation": {"11": {"stimulus": 16, "trial": 11, "rt": 1626}, "10": {"stimulus": 14, "trial": 10, "rt": 1115}, "1": {"stimulus": 16, "trial": 1, "rt": 1595}, "0": {"stimulus": 12, "trial": 0, "rt": 2217}, "3": {"stimulus": 10, "trial": 3, "rt": 1283}, "2": {"stimulus": 14, "trial": 2, "rt": 1715}, "5": {"stimulus": 16, "trial": 5, "rt": 1411}, "4": {"stimulus": 10, "trial": 4, "rt": 1227}, "7": {"stimulus": 14, "trial": 7, "rt": 1003}, "6": {"stimulus": 12, "trial": 6, "rt": 1027}, "9": {"stimulus": 10, "trial": 9, "rt": 763}, "8": {"stimulus": 12, "trial": 8, "rt": 939}}, "generalization": {"56": {"stimulus": 69, "trial": 56, "rt": 356, "response": "Alpha"}, "77": {"stimulus": 39, "trial": 77, "rt": 499, "response": "Alpha"}, "54": {"stimulus": 42, "trial": 54, "rt": 371, "response": "Alpha"}, "42": {"stimulus": 31, "trial": 42, "rt": 419, "response": "Alpha"}, "48": {"stimulus": 73, "trial": 48, "rt": 443, "response": "Alpha"}, "43": {"stimulus": 76, "trial": 43, "rt": 426, "response": "Alpha"}, "60": {"stimulus": 18, "trial": 60, "rt": 1348, "response": "Beta"}, "61": {"stimulus": 71, "trial": 61, "rt": 404, "response": "Alpha"}, "62": {"stimulus": 46, "trial": 62, "rt": 347, "response": "Alpha"}, "63": {"stimulus": 54, "trial": 63, "rt": 363, "response": "Alpha"}, "64": {"stimulus": 2, "trial": 64, "rt": 1627, "response": "Beta"}, "49": {"stimulus": 59, "trial": 49, "rt": 427, "response": "Alpha"}, "66": {"stimulus": 63, "trial": 66, "rt": 450, "response": "Alpha"}, "67": {"stimulus": 13, "trial": 67, "rt": 772, "response": "Alpha"}, "68": {"stimulus": 79, "trial": 68, "rt": 371, "response": "Alpha"}, "69": {"stimulus": 4, "trial": 69, "rt": 435, "response": "Alpha"}, "80": {"stimulus": 60, "trial": 80, "rt": 362, "response": "Alpha"}, "52": {"stimulus": 68, "trial": 52, "rt": 467, "response": "Alpha"}, "53": {"stimulus": 55, "trial": 53, "rt": 435, "response": "Alpha"}, "24": {"stimulus": 44, "trial": 24, "rt": 435, "response": "Alpha"}, "25": {"stimulus": 14, "trial": 25, "rt": 907, "response": "Alpha"}, "26": {"stimulus": 37, "trial": 26, "rt": 506, "response": "Alpha"}, "27": {"stimulus": 5, "trial": 27, "rt": 954, "response": "Alpha"}, "20": {"stimulus": 61, "trial": 20, "rt": 371, "response": "Alpha"}, "21": {"stimulus": 49, "trial": 21, "rt": 395, "response": "Alpha"}, "22": {"stimulus": 36, "trial": 22, "rt": 2251, "response": "Alpha"}, "23": {"stimulus": 17, "trial": 23, "rt": 843, "response": "Alpha"}, "46": {"stimulus": 28, "trial": 46, "rt": 1259, "response": "Alpha"}, "47": {"stimulus": 52, "trial": 47, "rt": 395, "response": "Alpha"}, "44": {"stimulus": 25, "trial": 44, "rt": 475, "response": "Alpha"}, "45": {"stimulus": 53, "trial": 45, "rt": 411, "response": "Alpha"}, "28": {"stimulus": 9, "trial": 28, "rt": 1363, "response": "Beta"}, "29": {"stimulus": 64, "trial": 29, "rt": 475, "response": "Alpha"}, "40": {"stimulus": 75, "trial": 40, "rt": 411, "response": "Alpha"}, "41": {"stimulus": 20, "trial": 41, "rt": 3244, "response": "Alpha"}, "1": {"stimulus": 12, "trial": 1, "rt": 5467, "response": "Alpha"}, "0": {"stimulus": 70, "trial": 0, "rt": 4202, "response": "Alpha"}, "3": {"stimulus": 43, "trial": 3, "rt": 1316, "response": "Alpha"}, "2": {"stimulus": 66, "trial": 2, "rt": 579, "response": "Alpha"}, "5": {"stimulus": 26, "trial": 5, "rt": 627, "response": "Alpha"}, "4": {"stimulus": 35, "trial": 4, "rt": 860, "response": "Alpha"}, "7": {"stimulus": 1, "trial": 7, "rt": 2132, "response": "Alpha"}, "6": {"stimulus": 3, "trial": 6, "rt": 1251, "response": "Alpha"}, "9": {"stimulus": 77, "trial": 9, "rt": 658, "response": "Alpha"}, "8": {"stimulus": 16, "trial": 8, "rt": 522, "response": "Alpha"}, "78": {"stimulus": 0, "trial": 78, "rt": 947, "response": "Beta"}, "51": {"stimulus": 27, "trial": 51, "rt": 811, "response": "Alpha"}, "39": {"stimulus": 30, "trial": 39, "rt": 931, "response": "Alpha"}, "65": {"stimulus": 51, "trial": 65, "rt": 387, "response": "Alpha"}, "76": {"stimulus": 56, "trial": 76, "rt": 436, "response": "Alpha"}, "75": {"stimulus": 29, "trial": 75, "rt": 740, "response": "Alpha"}, "38": {"stimulus": 7, "trial": 38, "rt": 819, "response": "Alpha"}, "73": {"stimulus": 11, "trial": 73, "rt": 412, "response": "Alpha"}, "72": {"stimulus": 45, "trial": 72, "rt": 516, "response": "Alpha"}, "71": {"stimulus": 47, "trial": 71, "rt": 451, "response": "Alpha"}, "70": {"stimulus": 33, "trial": 70, "rt": 5443, "response": "Alpha"}, "59": {"stimulus": 6, "trial": 59, "rt": 387, "response": "Alpha"}, "79": {"stimulus": 32, "trial": 79, "rt": 683, "response": "Alpha"}, "58": {"stimulus": 41, "trial": 58, "rt": 428, "response": "Alpha"}, "11": {"stimulus": 72, "trial": 11, "rt": 498, "response": "Alpha"}, "10": {"stimulus": 62, "trial": 10, "rt": 451, "response": "Alpha"}, "13": {"stimulus": 58, "trial": 13, "rt": 419, "response": "Alpha"}, "12": {"stimulus": 34, "trial": 12, "rt": 866, "response": "Alpha"}, "15": {"stimulus": 57, "trial": 15, "rt": 412, "response": "Alpha"}, "14": {"stimulus": 80, "trial": 14, "rt": 379, "response": "Alpha"}, "17": {"stimulus": 22, "trial": 17, "rt": 467, "response": "Alpha"}, "16": {"stimulus": 23, "trial": 16, "rt": 1042, "response": "Alpha"}, "19": {"stimulus": 48, "trial": 19, "rt": 475, "response": "Alpha"}, "18": {"stimulus": 78, "trial": 18, "rt": 419, "response": "Alpha"}, "31": {"stimulus": 21, "trial": 31, "rt": 459, "response": "Alpha"}, "30": {"stimulus": 8, "trial": 30, "rt": 731, "response": "Alpha"}, "37": {"stimulus": 67, "trial": 37, "rt": 459, "response": "Alpha"}, "36": {"stimulus": 38, "trial": 36, "rt": 435, "response": "Alpha"}, "35": {"stimulus": 15, "trial": 35, "rt": 787, "response": "Alpha"}, "34": {"stimulus": 65, "trial": 34, "rt": 451, "response": "Alpha"}, "33": {"stimulus": 74, "trial": 33, "rt": 371, "response": "Alpha"}, "55": {"stimulus": 40, "trial": 55, "rt": 396, "response": "Alpha"}, "74": {"stimulus": 19, "trial": 74, "rt": 860, "response": "Alpha"}, "32": {"stimulus": 24, "trial": 32, "rt": 403, "response": "Alpha"}, "57": {"stimulus": 50, "trial": 57, "rt": 387, "response": "Alpha"}, "50": {"stimulus": 10, "trial": 50, "rt": 1635, "response": "Beta"}}}