{"generation": {"1": {"stimulus": 43, "trial": 1, "rt": 8707}, "0": {"stimulus": 65, "trial": 0, "rt": 12161}, "3": {"stimulus": 62, "trial": 3, "rt": 5684}, "2": {"stimulus": 0, "trial": 2, "rt": 5440}}, "info": {"finish": 1488822631396, "participant": 139, "exposed": true, "lab": false, "start": 1488822403738, "counterbalance": 3, "condition": "XOR", "browser": {"platform": "Win32", "userAgent": "Mozilla/5.0 (Windows NT 6.3; Win64; x64) AppleWebKit/537.36 (KHTML, like Gecko) Chrome/56.0.2924.87 Safari/537.36"}}, "experiment": {"Paradigm": "TACL", "Stimuli": "Size-Color Squares", "Experiment": "Generating-Categories"}, "observation": {"11": {"stimulus": 70, "trial": 11, "rt": 1058}, "10": {"stimulus": 0, "trial": 10, "rt": 1509}, "1": {"stimulus": 10, "trial": 1, "rt": 1522}, "0": {"stimulus": 80, "trial": 0, "rt": 3072}, "3": {"stimulus": 0, "trial": 3, "rt": 2066}, "2": {"stimulus": 70, "trial": 2, "rt": 1793}, "5": {"stimulus": 80, "trial": 5, "rt": 1652}, "4": {"stimulus": 0, "trial": 4, "rt": 1491}, "7": {"stimulus": 10, "trial": 7, "rt": 1181}, "6": {"stimulus": 70, "trial": 6, "rt": 1113}, "9": {"stimulus": 10, "trial": 9, "rt": 935}, "8": {"stimulus": 80, "trial": 8, "rt": 949}}, "generalization": {"56": {"stimulus": 53, "trial": 56, "rt": 1028, "response": "Alpha"}, "77": {"stimulus": 2, "trial": 77, "rt": 922, "response": "Alpha"}, "54": {"stimulus": 64, "trial": 54, "rt": 1286, "response": "Beta"}, "42": {"stimulus": 54, "trial": 42, "rt": 762, "response": "Beta"}, "48": {"stimulus": 26, "trial": 48, "rt": 828, "response": "Alpha"}, "43": {"stimulus": 58, "trial": 43, "rt": 1802, "response": "Beta"}, "60": {"stimulus": 16, "trial": 60, "rt": 842, "response": "Alpha"}, "61": {"stimulus": 70, "trial": 61, "rt": 978, "response": "Beta"}, "62": {"stimulus": 19, "trial": 62, "rt": 1896, "response": "Alpha"}, "63": {"stimulus": 44, "trial": 63, "rt": 964, "response": "Alpha"}, "64": {"stimulus": 27, "trial": 64, "rt": 1083, "response": "Alpha"}, "49": {"stimulus": 17, "trial": 49, "rt": 746, "response": "Alpha"}, "66": {"stimulus": 0, "trial": 66, "rt": 1055, "response": "Alpha"}, "67": {"stimulus": 22, "trial": 67, "rt": 1534, "response": "Alpha"}, "68": {"stimulus": 30, "trial": 68, "rt": 1382, "response": "Alpha"}, "69": {"stimulus": 51, "trial": 69, "rt": 1066, "response": "Beta"}, "80": {"stimulus": 20, "trial": 80, "rt": 3073, "response": "Alpha"}, "52": {"stimulus": 59, "trial": 52, "rt": 882, "response": "Beta"}, "53": {"stimulus": 35, "trial": 53, "rt": 1104, "response": "Alpha"}, "24": {"stimulus": 9, "trial": 24, "rt": 1060, "response": "Alpha"}, "25": {"stimulus": 42, "trial": 25, "rt": 839, "response": "Alpha"}, "26": {"stimulus": 32, "trial": 26, "rt": 1187, "response": "Alpha"}, "27": {"stimulus": 36, "trial": 27, "rt": 949, "response": "Beta"}, "20": {"stimulus": 57, "trial": 20, "rt": 1122, "response": "Alpha"}, "21": {"stimulus": 46, "trial": 21, "rt": 1085, "response": "Alpha"}, "22": {"stimulus": 5, "trial": 22, "rt": 1180, "response": "Alpha"}, "23": {"stimulus": 68, "trial": 23, "rt": 2048, "response": "Beta"}, "46": {"stimulus": 15, "trial": 46, "rt": 951, "response": "Alpha"}, "47": {"stimulus": 66, "trial": 47, "rt": 906, "response": "Beta"}, "44": {"stimulus": 48, "trial": 44, "rt": 1177, "response": "Alpha"}, "45": {"stimulus": 39, "trial": 45, "rt": 664, "response": "Alpha"}, "28": {"stimulus": 80, "trial": 28, "rt": 1032, "response": "Beta"}, "29": {"stimulus": 14, "trial": 29, "rt": 1129, "response": "Alpha"}, "40": {"stimulus": 11, "trial": 40, "rt": 999, "response": "Alpha"}, "41": {"stimulus": 7, "trial": 41, "rt": 1217, "response": "Alpha"}, "1": {"stimulus": 69, "trial": 1, "rt": 1777, "response": "Beta"}, "0": {"stimulus": 12, "trial": 0, "rt": 3392, "response": "Alpha"}, "3": {"stimulus": 25, "trial": 3, "rt": 2183, "response": "Beta"}, "2": {"stimulus": 13, "trial": 2, "rt": 1073, "response": "Alpha"}, "5": {"stimulus": 1, "trial": 5, "rt": 1194, "response": "Alpha"}, "4": {"stimulus": 34, "trial": 4, "rt": 657, "response": "Beta"}, "7": {"stimulus": 45, "trial": 7, "rt": 2196, "response": "Beta"}, "6": {"stimulus": 62, "trial": 6, "rt": 887, "response": "Alpha"}, "9": {"stimulus": 49, "trial": 9, "rt": 828, "response": "Alpha"}, "8": {"stimulus": 74, "trial": 8, "rt": 1621, "response": "Beta"}, "78": {"stimulus": 4, "trial": 78, "rt": 913, "response": "Alpha"}, "51": {"stimulus": 23, "trial": 51, "rt": 1061, "response": "Alpha"}, "39": {"stimulus": 52, "trial": 39, "rt": 907, "response": "Beta"}, "65": {"stimulus": 78, "trial": 65, "rt": 935, "response": "Beta"}, "76": {"stimulus": 41, "trial": 76, "rt": 1983, "response": "Beta"}, "75": {"stimulus": 79, "trial": 75, "rt": 864, "response": "Beta"}, "38": {"stimulus": 73, "trial": 38, "rt": 989, "response": "Beta"}, "73": {"stimulus": 28, "trial": 73, "rt": 887, "response": "Alpha"}, "72": {"stimulus": 33, "trial": 72, "rt": 1462, "response": "Alpha"}, "71": {"stimulus": 60, "trial": 71, "rt": 1190, "response": "Beta"}, "70": {"stimulus": 8, "trial": 70, "rt": 914, "response": "Alpha"}, "59": {"stimulus": 6, "trial": 59, "rt": 945, "response": "Alpha"}, "79": {"stimulus": 40, "trial": 79, "rt": 1515, "response": "Beta"}, "58": {"stimulus": 31, "trial": 58, "rt": 962, "response": "Alpha"}, "11": {"stimulus": 24, "trial": 11, "rt": 1159, "response": "Alpha"}, "10": {"stimulus": 71, "trial": 10, "rt": 882, "response": "Beta"}, "13": {"stimulus": 61, "trial": 13, "rt": 978, "response": "Beta"}, "12": {"stimulus": 63, "trial": 12, "rt": 1046, "response": "Beta"}, "15": {"stimulus": 50, "trial": 15, "rt": 751, "response": "Alpha"}, "14": {"stimulus": 47, "trial": 14, "rt": 930, "response": "Alpha"}, "17": {"stimulus": 72, "trial": 17, "rt": 773, "response": "Beta"}, "16": {"stimulus": 56, "trial": 16, "rt": 923, "response": "Alpha"}, "19": {"stimulus": 77, "trial": 19, "rt": 879, "response": "Beta"}, "18": {"stimulus": 75, "trial": 18, "rt": 1024, "response": "Beta"}, "31": {"stimulus": 37, "trial": 31, "rt": 866, "response": "Beta"}, "30": {"stimulus": 21, "trial": 30, "rt": 2030, "response": "Beta"}, "37": {"stimulus": 3, "trial": 37, "rt": 992, "response": "Alpha"}, "36": {"stimulus": 65, "trial": 36, "rt": 1107, "response": "Beta"}, "35": {"stimulus": 18, "trial": 35, "rt": 711, "response": "Alpha"}, "34": {"stimulus": 10, "trial": 34, "rt": 554, "response": "Alpha"}, "33": {"stimulus": 55, "trial": 33, "rt": 834, "response": "Beta"}, "55": {"stimulus": 38, "trial": 55, "rt": 1004, "response": "Beta"}, "74": {"stimulus": 29, "trial": 74, "rt": 806, "response": "Alpha"}, "32": {"stimulus": 67, "trial": 32, "rt": 1149, "response": "Beta"}, "57": {"stimulus": 76, "trial": 57, "rt": 1205, "response": "Beta"}, "50": {"stimulus": 43, "trial": 50, "rt": 989, "response": "Beta"}}}