{"generation": {"1": {"stimulus": 74, "trial": 1, "rt": 6477}, "0": {"stimulus": 72, "trial": 0, "rt": 12931}, "3": {"stimulus": 80, "trial": 3, "rt": 5968}, "2": {"stimulus": 75, "trial": 2, "rt": 7478}}, "info": {"finish": 1488822293920, "participant": 14, "exposed": true, "lab": false, "start": 1488821813521, "counterbalance": 7, "condition": "Row", "browser": {"platform": "MacIntel", "userAgent": "Mozilla/5.0 (Macintosh; Intel Mac OS X 10_10_5) AppleWebKit/537.36 (KHTML, like Gecko) Chrome/56.0.2924.87 Safari/537.36"}}, "experiment": {"Paradigm": "TACL", "Stimuli": "Size-Color Squares", "Experiment": "Generating-Categories"}, "observation": {"11": {"stimulus": 10, "trial": 11, "rt": 1236}, "10": {"stimulus": 16, "trial": 10, "rt": 1065}, "1": {"stimulus": 10, "trial": 1, "rt": 1586}, "0": {"stimulus": 14, "trial": 0, "rt": 3506}, "3": {"stimulus": 12, "trial": 3, "rt": 1399}, "2": {"stimulus": 16, "trial": 2, "rt": 1788}, "5": {"stimulus": 12, "trial": 5, "rt": 1246}, "4": {"stimulus": 10, "trial": 4, "rt": 1297}, "7": {"stimulus": 16, "trial": 7, "rt": 1068}, "6": {"stimulus": 14, "trial": 6, "rt": 1853}, "9": {"stimulus": 14, "trial": 9, "rt": 1068}, "8": {"stimulus": 12, "trial": 8, "rt": 1036}}, "generalization": {"56": {"stimulus": 67, "trial": 56, "rt": 880, "response": "Beta"}, "77": {"stimulus": 52, "trial": 77, "rt": 1031, "response": "Beta"}, "54": {"stimulus": 77, "trial": 54, "rt": 1060, "response": "Beta"}, "42": {"stimulus": 44, "trial": 42, "rt": 2154, "response": "Alpha"}, "48": {"stimulus": 23, "trial": 48, "rt": 1305, "response": "Alpha"}, "43": {"stimulus": 61, "trial": 43, "rt": 941, "response": "Beta"}, "60": {"stimulus": 7, "trial": 60, "rt": 538, "response": "Alpha"}, "61": {"stimulus": 49, "trial": 61, "rt": 1202, "response": "Beta"}, "62": {"stimulus": 37, "trial": 62, "rt": 2054, "response": "Beta"}, "63": {"stimulus": 48, "trial": 63, "rt": 1423, "response": "Beta"}, "64": {"stimulus": 17, "trial": 64, "rt": 582, "response": "Alpha"}, "49": {"stimulus": 65, "trial": 49, "rt": 922, "response": "Beta"}, "66": {"stimulus": 68, "trial": 66, "rt": 853, "response": "Beta"}, "67": {"stimulus": 36, "trial": 67, "rt": 1921, "response": "Beta"}, "68": {"stimulus": 32, "trial": 68, "rt": 1268, "response": "Alpha"}, "69": {"stimulus": 58, "trial": 69, "rt": 792, "response": "Beta"}, "80": {"stimulus": 11, "trial": 80, "rt": 1382, "response": "Alpha"}, "52": {"stimulus": 71, "trial": 52, "rt": 842, "response": "Beta"}, "53": {"stimulus": 28, "trial": 53, "rt": 736, "response": "Alpha"}, "24": {"stimulus": 6, "trial": 24, "rt": 753, "response": "Alpha"}, "25": {"stimulus": 20, "trial": 25, "rt": 1578, "response": "Alpha"}, "26": {"stimulus": 13, "trial": 26, "rt": 1926, "response": "Alpha"}, "27": {"stimulus": 26, "trial": 27, "rt": 843, "response": "Alpha"}, "20": {"stimulus": 53, "trial": 20, "rt": 975, "response": "Beta"}, "21": {"stimulus": 75, "trial": 21, "rt": 894, "response": "Beta"}, "22": {"stimulus": 45, "trial": 22, "rt": 4398, "response": "Beta"}, "23": {"stimulus": 66, "trial": 23, "rt": 1003, "response": "Beta"}, "46": {"stimulus": 62, "trial": 46, "rt": 1573, "response": "Beta"}, "47": {"stimulus": 8, "trial": 47, "rt": 811, "response": "Alpha"}, "44": {"stimulus": 33, "trial": 44, "rt": 931, "response": "Alpha"}, "45": {"stimulus": 42, "trial": 45, "rt": 1537, "response": "Alpha"}, "28": {"stimulus": 70, "trial": 28, "rt": 985, "response": "Beta"}, "29": {"stimulus": 60, "trial": 29, "rt": 701, "response": "Beta"}, "40": {"stimulus": 50, "trial": 40, "rt": 856, "response": "Beta"}, "41": {"stimulus": 78, "trial": 41, "rt": 601, "response": "Beta"}, "1": {"stimulus": 46, "trial": 1, "rt": 3720, "response": "Alpha"}, "0": {"stimulus": 55, "trial": 0, "rt": 3567, "response": "Beta"}, "3": {"stimulus": 47, "trial": 3, "rt": 2166, "response": "Alpha"}, "2": {"stimulus": 43, "trial": 2, "rt": 1020, "response": "Alpha"}, "5": {"stimulus": 72, "trial": 5, "rt": 743, "response": "Beta"}, "4": {"stimulus": 69, "trial": 4, "rt": 1793, "response": "Beta"}, "7": {"stimulus": 76, "trial": 7, "rt": 935, "response": "Beta"}, "6": {"stimulus": 56, "trial": 6, "rt": 1028, "response": "Alpha"}, "9": {"stimulus": 79, "trial": 9, "rt": 991, "response": "Beta"}, "8": {"stimulus": 5, "trial": 8, "rt": 1364, "response": "Alpha"}, "78": {"stimulus": 27, "trial": 78, "rt": 764, "response": "Alpha"}, "51": {"stimulus": 41, "trial": 51, "rt": 882, "response": "Alpha"}, "39": {"stimulus": 74, "trial": 39, "rt": 786, "response": "Beta"}, "65": {"stimulus": 16, "trial": 65, "rt": 479, "response": "Alpha"}, "76": {"stimulus": 57, "trial": 76, "rt": 878, "response": "Beta"}, "75": {"stimulus": 0, "trial": 75, "rt": 784, "response": "Alpha"}, "38": {"stimulus": 31, "trial": 38, "rt": 1052, "response": "Alpha"}, "73": {"stimulus": 9, "trial": 73, "rt": 710, "response": "Alpha"}, "72": {"stimulus": 63, "trial": 72, "rt": 1031, "response": "Beta"}, "71": {"stimulus": 40, "trial": 71, "rt": 2140, "response": "Beta"}, "70": {"stimulus": 73, "trial": 70, "rt": 599, "response": "Beta"}, "59": {"stimulus": 15, "trial": 59, "rt": 672, "response": "Alpha"}, "79": {"stimulus": 4, "trial": 79, "rt": 615, "response": "Alpha"}, "58": {"stimulus": 3, "trial": 58, "rt": 473, "response": "Alpha"}, "11": {"stimulus": 64, "trial": 11, "rt": 913, "response": "Beta"}, "10": {"stimulus": 14, "trial": 10, "rt": 939, "response": "Alpha"}, "13": {"stimulus": 38, "trial": 13, "rt": 2669, "response": "Alpha"}, "12": {"stimulus": 22, "trial": 12, "rt": 598, "response": "Alpha"}, "15": {"stimulus": 1, "trial": 15, "rt": 748, "response": "Alpha"}, "14": {"stimulus": 34, "trial": 14, "rt": 1981, "response": "Alpha"}, "17": {"stimulus": 29, "trial": 17, "rt": 1376, "response": "Alpha"}, "16": {"stimulus": 30, "trial": 16, "rt": 1000, "response": "Alpha"}, "19": {"stimulus": 24, "trial": 19, "rt": 720, "response": "Alpha"}, "18": {"stimulus": 59, "trial": 18, "rt": 808, "response": "Beta"}, "31": {"stimulus": 19, "trial": 31, "rt": 809, "response": "Alpha"}, "30": {"stimulus": 54, "trial": 30, "rt": 649, "response": "Beta"}, "37": {"stimulus": 25, "trial": 37, "rt": 559, "response": "Alpha"}, "36": {"stimulus": 10, "trial": 36, "rt": 562, "response": "Alpha"}, "35": {"stimulus": 2, "trial": 35, "rt": 548, "response": "Alpha"}, "34": {"stimulus": 21, "trial": 34, "rt": 952, "response": "Alpha"}, "33": {"stimulus": 18, "trial": 33, "rt": 691, "response": "Alpha"}, "55": {"stimulus": 35, "trial": 55, "rt": 804, "response": "Alpha"}, "74": {"stimulus": 80, "trial": 74, "rt": 887, "response": "Beta"}, "32": {"stimulus": 51, "trial": 32, "rt": 699, "response": "Beta"}, "57": {"stimulus": 12, "trial": 57, "rt": 1734, "response": "Alpha"}, "50": {"stimulus": 39, "trial": 50, "rt": 2532, "response": "Alpha"}}}