{"generation": {"1": {"stimulus": 77, "trial": 1, "rt": 17722}, "0": {"stimulus": 78, "trial": 0, "rt": 44859}, "3": {"stimulus": 73, "trial": 3, "rt": 8123}, "2": {"stimulus": 72, "trial": 2, "rt": 10980}}, "info": {"finish": 1488845536329, "participant": 140, "exposed": true, "lab": false, "start": 1488845208275, "counterbalance": 5, "condition": "Row", "browser": {"platform": "Win32", "userAgent": "Mozilla/5.0 (Windows NT 6.2; WOW64) AppleWebKit/537.36 (KHTML, like Gecko) Chrome/56.0.2924.87 Safari/537.36"}}, "experiment": {"Paradigm": "TACL", "Stimuli": "Size-Color Squares", "Experiment": "Generating-Categories"}, "observation": {"11": {"stimulus": 10, "trial": 11, "rt": 3716}, "10": {"stimulus": 14, "trial": 10, "rt": 3221}, "1": {"stimulus": 10, "trial": 1, "rt": 4547}, "0": {"stimulus": 12, "trial": 0, "rt": 6368}, "3": {"stimulus": 16, "trial": 3, "rt": 3020}, "2": {"stimulus": 14, "trial": 2, "rt": 4068}, "5": {"stimulus": 14, "trial": 5, "rt": 3572}, "4": {"stimulus": 10, "trial": 4, "rt": 3732}, "7": {"stimulus": 12, "trial": 7, "rt": 2875}, "6": {"stimulus": 16, "trial": 6, "rt": 2556}, "9": {"stimulus": 12, "trial": 9, "rt": 3515}, "8": {"stimulus": 16, "trial": 8, "rt": 2101}}, "generalization": {"56": {"stimulus": 40, "trial": 56, "rt": 957, "response": "Beta"}, "77": {"stimulus": 54, "trial": 77, "rt": 892, "response": "Beta"}, "54": {"stimulus": 35, "trial": 54, "rt": 1459, "response": "Beta"}, "42": {"stimulus": 46, "trial": 42, "rt": 916, "response": "Beta"}, "48": {"stimulus": 39, "trial": 48, "rt": 2164, "response": "Beta"}, "43": {"stimulus": 8, "trial": 43, "rt": 1284, "response": "Alpha"}, "60": {"stimulus": 24, "trial": 60, "rt": 2468, "response": "Alpha"}, "61": {"stimulus": 48, "trial": 61, "rt": 1292, "response": "Beta"}, "62": {"stimulus": 49, "trial": 62, "rt": 772, "response": "Beta"}, "63": {"stimulus": 45, "trial": 63, "rt": 875, "response": "Beta"}, "64": {"stimulus": 21, "trial": 64, "rt": 1547, "response": "Alpha"}, "49": {"stimulus": 73, "trial": 49, "rt": 668, "response": "Beta"}, "66": {"stimulus": 29, "trial": 66, "rt": 1460, "response": "Beta"}, "67": {"stimulus": 31, "trial": 67, "rt": 1444, "response": "Beta"}, "68": {"stimulus": 66, "trial": 68, "rt": 699, "response": "Beta"}, "69": {"stimulus": 76, "trial": 69, "rt": 627, "response": "Beta"}, "80": {"stimulus": 15, "trial": 80, "rt": 579, "response": "Alpha"}, "52": {"stimulus": 26, "trial": 52, "rt": 1436, "response": "Alpha"}, "53": {"stimulus": 71, "trial": 53, "rt": 1236, "response": "Beta"}, "24": {"stimulus": 78, "trial": 24, "rt": 965, "response": "Beta"}, "25": {"stimulus": 41, "trial": 25, "rt": 2076, "response": "Beta"}, "26": {"stimulus": 17, "trial": 26, "rt": 1219, "response": "Alpha"}, "27": {"stimulus": 3, "trial": 27, "rt": 771, "response": "Alpha"}, "20": {"stimulus": 60, "trial": 20, "rt": 1156, "response": "Beta"}, "21": {"stimulus": 36, "trial": 21, "rt": 2219, "response": "Beta"}, "22": {"stimulus": 12, "trial": 22, "rt": 1163, "response": "Alpha"}, "23": {"stimulus": 2, "trial": 23, "rt": 1060, "response": "Alpha"}, "46": {"stimulus": 64, "trial": 46, "rt": 645, "response": "Beta"}, "47": {"stimulus": 13, "trial": 47, "rt": 1084, "response": "Alpha"}, "44": {"stimulus": 65, "trial": 44, "rt": 899, "response": "Beta"}, "45": {"stimulus": 67, "trial": 45, "rt": 1171, "response": "Beta"}, "28": {"stimulus": 37, "trial": 28, "rt": 1237, "response": "Beta"}, "29": {"stimulus": 19, "trial": 29, "rt": 1180, "response": "Alpha"}, "40": {"stimulus": 1, "trial": 40, "rt": 739, "response": "Alpha"}, "41": {"stimulus": 70, "trial": 41, "rt": 1125, "response": "Beta"}, "1": {"stimulus": 72, "trial": 1, "rt": 1428, "response": "Beta"}, "0": {"stimulus": 80, "trial": 0, "rt": 2779, "response": "Beta"}, "3": {"stimulus": 44, "trial": 3, "rt": 1707, "response": "Alpha"}, "2": {"stimulus": 47, "trial": 2, "rt": 2452, "response": "Alpha"}, "5": {"stimulus": 68, "trial": 5, "rt": 1924, "response": "Beta"}, "4": {"stimulus": 57, "trial": 4, "rt": 1996, "response": "Beta"}, "7": {"stimulus": 59, "trial": 7, "rt": 1987, "response": "Beta"}, "6": {"stimulus": 55, "trial": 6, "rt": 1148, "response": "Beta"}, "9": {"stimulus": 5, "trial": 9, "rt": 1164, "response": "Alpha"}, "8": {"stimulus": 74, "trial": 8, "rt": 901, "response": "Beta"}, "78": {"stimulus": 7, "trial": 78, "rt": 1108, "response": "Alpha"}, "51": {"stimulus": 61, "trial": 51, "rt": 765, "response": "Beta"}, "39": {"stimulus": 20, "trial": 39, "rt": 699, "response": "Alpha"}, "65": {"stimulus": 77, "trial": 65, "rt": 853, "response": "Beta"}, "76": {"stimulus": 25, "trial": 76, "rt": 747, "response": "Alpha"}, "75": {"stimulus": 4, "trial": 75, "rt": 739, "response": "Alpha"}, "38": {"stimulus": 16, "trial": 38, "rt": 900, "response": "Alpha"}, "73": {"stimulus": 28, "trial": 73, "rt": 1068, "response": "Alpha"}, "72": {"stimulus": 22, "trial": 72, "rt": 1148, "response": "Alpha"}, "71": {"stimulus": 75, "trial": 71, "rt": 716, "response": "Beta"}, "70": {"stimulus": 63, "trial": 70, "rt": 733, "response": "Beta"}, "59": {"stimulus": 56, "trial": 59, "rt": 1331, "response": "Beta"}, "79": {"stimulus": 18, "trial": 79, "rt": 763, "response": "Alpha"}, "58": {"stimulus": 14, "trial": 58, "rt": 1156, "response": "Alpha"}, "11": {"stimulus": 10, "trial": 11, "rt": 995, "response": "Alpha"}, "10": {"stimulus": 42, "trial": 10, "rt": 4192, "response": "Alpha"}, "13": {"stimulus": 69, "trial": 13, "rt": 1083, "response": "Beta"}, "12": {"stimulus": 27, "trial": 12, "rt": 1884, "response": "Alpha"}, "15": {"stimulus": 9, "trial": 15, "rt": 2612, "response": "Alpha"}, "14": {"stimulus": 62, "trial": 14, "rt": 811, "response": "Beta"}, "17": {"stimulus": 11, "trial": 17, "rt": 1196, "response": "Alpha"}, "16": {"stimulus": 33, "trial": 16, "rt": 1284, "response": "Alpha"}, "19": {"stimulus": 58, "trial": 19, "rt": 925, "response": "Beta"}, "18": {"stimulus": 38, "trial": 18, "rt": 2011, "response": "Alpha"}, "31": {"stimulus": 6, "trial": 31, "rt": 1995, "response": "Alpha"}, "30": {"stimulus": 23, "trial": 30, "rt": 1228, "response": "Alpha"}, "37": {"stimulus": 32, "trial": 37, "rt": 1500, "response": "Alpha"}, "36": {"stimulus": 30, "trial": 36, "rt": 3212, "response": "Alpha"}, "35": {"stimulus": 0, "trial": 35, "rt": 1067, "response": "Alpha"}, "34": {"stimulus": 53, "trial": 34, "rt": 1340, "response": "Beta"}, "33": {"stimulus": 50, "trial": 33, "rt": 1204, "response": "Beta"}, "55": {"stimulus": 43, "trial": 55, "rt": 867, "response": "Beta"}, "74": {"stimulus": 34, "trial": 74, "rt": 1083, "response": "Alpha"}, "32": {"stimulus": 79, "trial": 32, "rt": 933, "response": "Beta"}, "57": {"stimulus": 51, "trial": 57, "rt": 732, "response": "Beta"}, "50": {"stimulus": 52, "trial": 50, "rt": 619, "response": "Beta"}}}