{"generation": {"1": {"stimulus": 9, "trial": 1, "rt": 8071}, "0": {"stimulus": 0, "trial": 0, "rt": 16316}, "3": {"stimulus": 45, "trial": 3, "rt": 2814}, "2": {"stimulus": 18, "trial": 2, "rt": 4841}}, "info": {"finish": 1488822586537, "participant": 141, "exposed": true, "lab": false, "start": 1488822409445, "counterbalance": 4, "condition": "Cluster", "browser": {"platform": "Win32", "userAgent": "Mozilla/5.0 (Windows NT 6.1; WOW64) AppleWebKit/537.36 (KHTML, like Gecko) Chrome/56.0.2924.87 Safari/537.36"}}, "experiment": {"Paradigm": "TACL", "Stimuli": "Size-Color Squares", "Experiment": "Generating-Categories"}, "observation": {"11": {"stimulus": 34, "trial": 11, "rt": 880}, "10": {"stimulus": 14, "trial": 10, "rt": 1145}, "1": {"stimulus": 34, "trial": 1, "rt": 2280}, "0": {"stimulus": 16, "trial": 0, "rt": 4119}, "3": {"stimulus": 32, "trial": 3, "rt": 1234}, "2": {"stimulus": 14, "trial": 2, "rt": 1360}, "5": {"stimulus": 16, "trial": 5, "rt": 1000}, "4": {"stimulus": 34, "trial": 4, "rt": 1283}, "7": {"stimulus": 32, "trial": 7, "rt": 969}, "6": {"stimulus": 14, "trial": 6, "rt": 1132}, "9": {"stimulus": 32, "trial": 9, "rt": 917}, "8": {"stimulus": 16, "trial": 8, "rt": 1080}}, "generalization": {"56": {"stimulus": 61, "trial": 56, "rt": 658, "response": "Alpha"}, "77": {"stimulus": 46, "trial": 77, "rt": 661, "response": "Beta"}, "54": {"stimulus": 9, "trial": 54, "rt": 614, "response": "Beta"}, "42": {"stimulus": 22, "trial": 42, "rt": 679, "response": "Alpha"}, "48": {"stimulus": 63, "trial": 48, "rt": 659, "response": "Beta"}, "43": {"stimulus": 34, "trial": 43, "rt": 478, "response": "Alpha"}, "60": {"stimulus": 41, "trial": 60, "rt": 445, "response": "Alpha"}, "61": {"stimulus": 19, "trial": 61, "rt": 844, "response": "Beta"}, "62": {"stimulus": 64, "trial": 62, "rt": 672, "response": "Beta"}, "63": {"stimulus": 28, "trial": 63, "rt": 446, "response": "Beta"}, "64": {"stimulus": 25, "trial": 64, "rt": 772, "response": "Alpha"}, "49": {"stimulus": 52, "trial": 49, "rt": 520, "response": "Alpha"}, "66": {"stimulus": 74, "trial": 66, "rt": 1141, "response": "Alpha"}, "67": {"stimulus": 18, "trial": 67, "rt": 678, "response": "Beta"}, "68": {"stimulus": 0, "trial": 68, "rt": 816, "response": "Beta"}, "69": {"stimulus": 42, "trial": 69, "rt": 598, "response": "Alpha"}, "80": {"stimulus": 12, "trial": 80, "rt": 581, "response": "Alpha"}, "52": {"stimulus": 54, "trial": 52, "rt": 714, "response": "Beta"}, "53": {"stimulus": 56, "trial": 53, "rt": 760, "response": "Beta"}, "24": {"stimulus": 11, "trial": 24, "rt": 641, "response": "Beta"}, "25": {"stimulus": 59, "trial": 25, "rt": 652, "response": "Alpha"}, "26": {"stimulus": 2, "trial": 26, "rt": 728, "response": "Beta"}, "27": {"stimulus": 55, "trial": 27, "rt": 713, "response": "Beta"}, "20": {"stimulus": 8, "trial": 20, "rt": 637, "response": "Alpha"}, "21": {"stimulus": 6, "trial": 21, "rt": 563, "response": "Alpha"}, "22": {"stimulus": 20, "trial": 22, "rt": 761, "response": "Beta"}, "23": {"stimulus": 27, "trial": 23, "rt": 798, "response": "Beta"}, "46": {"stimulus": 26, "trial": 46, "rt": 473, "response": "Alpha"}, "47": {"stimulus": 14, "trial": 47, "rt": 519, "response": "Alpha"}, "44": {"stimulus": 5, "trial": 44, "rt": 508, "response": "Alpha"}, "45": {"stimulus": 39, "trial": 45, "rt": 660, "response": "Alpha"}, "28": {"stimulus": 21, "trial": 28, "rt": 642, "response": "Alpha"}, "29": {"stimulus": 47, "trial": 29, "rt": 632, "response": "Beta"}, "40": {"stimulus": 36, "trial": 40, "rt": 770, "response": "Beta"}, "41": {"stimulus": 1, "trial": 41, "rt": 629, "response": "Beta"}, "1": {"stimulus": 24, "trial": 1, "rt": 993, "response": "Alpha"}, "0": {"stimulus": 45, "trial": 0, "rt": 1492, "response": "Beta"}, "3": {"stimulus": 17, "trial": 3, "rt": 879, "response": "Alpha"}, "2": {"stimulus": 32, "trial": 2, "rt": 951, "response": "Alpha"}, "5": {"stimulus": 43, "trial": 5, "rt": 714, "response": "Alpha"}, "4": {"stimulus": 37, "trial": 4, "rt": 879, "response": "Beta"}, "7": {"stimulus": 15, "trial": 7, "rt": 1047, "response": "Alpha"}, "6": {"stimulus": 4, "trial": 6, "rt": 729, "response": "Alpha"}, "9": {"stimulus": 48, "trial": 9, "rt": 846, "response": "Alpha"}, "8": {"stimulus": 10, "trial": 8, "rt": 684, "response": "Beta"}, "78": {"stimulus": 80, "trial": 78, "rt": 720, "response": "Alpha"}, "51": {"stimulus": 58, "trial": 51, "rt": 477, "response": "Alpha"}, "39": {"stimulus": 76, "trial": 39, "rt": 517, "response": "Alpha"}, "65": {"stimulus": 23, "trial": 65, "rt": 442, "response": "Alpha"}, "76": {"stimulus": 72, "trial": 76, "rt": 741, "response": "Beta"}, "75": {"stimulus": 60, "trial": 75, "rt": 446, "response": "Alpha"}, "38": {"stimulus": 3, "trial": 38, "rt": 827, "response": "Alpha"}, "73": {"stimulus": 70, "trial": 73, "rt": 477, "response": "Alpha"}, "72": {"stimulus": 13, "trial": 72, "rt": 481, "response": "Alpha"}, "71": {"stimulus": 77, "trial": 71, "rt": 464, "response": "Alpha"}, "70": {"stimulus": 65, "trial": 70, "rt": 690, "response": "Beta"}, "59": {"stimulus": 66, "trial": 59, "rt": 578, "response": "Alpha"}, "79": {"stimulus": 78, "trial": 79, "rt": 543, "response": "Alpha"}, "58": {"stimulus": 53, "trial": 58, "rt": 444, "response": "Alpha"}, "11": {"stimulus": 35, "trial": 11, "rt": 879, "response": "Alpha"}, "10": {"stimulus": 57, "trial": 10, "rt": 914, "response": "Alpha"}, "13": {"stimulus": 38, "trial": 13, "rt": 860, "response": "Beta"}, "12": {"stimulus": 16, "trial": 12, "rt": 574, "response": "Alpha"}, "15": {"stimulus": 71, "trial": 15, "rt": 721, "response": "Alpha"}, "14": {"stimulus": 49, "trial": 14, "rt": 752, "response": "Alpha"}, "17": {"stimulus": 44, "trial": 17, "rt": 646, "response": "Alpha"}, "16": {"stimulus": 73, "trial": 16, "rt": 796, "response": "Beta"}, "19": {"stimulus": 33, "trial": 19, "rt": 599, "response": "Alpha"}, "18": {"stimulus": 79, "trial": 18, "rt": 716, "response": "Alpha"}, "31": {"stimulus": 30, "trial": 31, "rt": 875, "response": "Alpha"}, "30": {"stimulus": 51, "trial": 30, "rt": 693, "response": "Alpha"}, "37": {"stimulus": 40, "trial": 37, "rt": 530, "response": "Alpha"}, "36": {"stimulus": 50, "trial": 36, "rt": 446, "response": "Alpha"}, "35": {"stimulus": 68, "trial": 35, "rt": 515, "response": "Alpha"}, "34": {"stimulus": 69, "trial": 34, "rt": 592, "response": "Alpha"}, "33": {"stimulus": 7, "trial": 33, "rt": 779, "response": "Alpha"}, "55": {"stimulus": 29, "trial": 55, "rt": 1306, "response": "Beta"}, "74": {"stimulus": 31, "trial": 74, "rt": 576, "response": "Alpha"}, "32": {"stimulus": 67, "trial": 32, "rt": 1263, "response": "Alpha"}, "57": {"stimulus": 62, "trial": 57, "rt": 631, "response": "Alpha"}, "50": {"stimulus": 75, "trial": 50, "rt": 841, "response": "Alpha"}}}