{"generation": {"1": {"stimulus": 12, "trial": 1, "rt": 12250}, "0": {"stimulus": 3, "trial": 0, "rt": 17330}, "3": {"stimulus": 29, "trial": 3, "rt": 8396}, "2": {"stimulus": 32, "trial": 2, "rt": 6608}}, "info": {"participant": 142, "exposed": true, "lab": false, "start": 1488822417035, "counterbalance": 5, "condition": "XOR", "browser": {"platform": "Win32", "userAgent": "Mozilla/5.0 (Windows NT 10.0; WOW64) AppleWebKit/537.36 (KHTML, like Gecko) Chrome/56.0.2924.87 Safari/537.36"}}, "experiment": {"Paradigm": "TACL", "Stimuli": "Size-Color Squares", "Experiment": "Generating-Categories"}, "observation": {"11": {"stimulus": 80, "trial": 11, "rt": 1212}, "10": {"stimulus": 70, "trial": 10, "rt": 1089}, "1": {"stimulus": 10, "trial": 1, "rt": 2089}, "0": {"stimulus": 70, "trial": 0, "rt": 2869}, "3": {"stimulus": 0, "trial": 3, "rt": 1053}, "2": {"stimulus": 80, "trial": 2, "rt": 1316}, "5": {"stimulus": 70, "trial": 5, "rt": 1859}, "4": {"stimulus": 80, "trial": 4, "rt": 1089}, "7": {"stimulus": 0, "trial": 7, "rt": 983}, "6": {"stimulus": 10, "trial": 6, "rt": 1469}, "9": {"stimulus": 10, "trial": 9, "rt": 1370}, "8": {"stimulus": 0, "trial": 8, "rt": 1009}}, "generalization": {"56": {"stimulus": 64, "trial": 56, "rt": 912, "response": "Alpha"}, "77": {"stimulus": 37, "trial": 77, "rt": 877, "response": "Beta"}, "54": {"stimulus": 45, "trial": 54, "rt": 532, "response": "Alpha"}, "42": {"stimulus": 69, "trial": 42, "rt": 1129, "response": "Beta"}, "48": {"stimulus": 36, "trial": 48, "rt": 522, "response": "Alpha"}, "43": {"stimulus": 39, "trial": 43, "rt": 859, "response": "Beta"}, "60": {"stimulus": 63, "trial": 60, "rt": 761, "response": "Alpha"}, "61": {"stimulus": 54, "trial": 61, "rt": 541, "response": "Alpha"}, "62": {"stimulus": 22, "trial": 62, "rt": 804, "response": "Beta"}, "63": {"stimulus": 0, "trial": 63, "rt": 694, "response": "Alpha"}, "64": {"stimulus": 71, "trial": 64, "rt": 1549, "response": "Alpha"}, "49": {"stimulus": 10, "trial": 49, "rt": 499, "response": "Alpha"}, "66": {"stimulus": 58, "trial": 66, "rt": 1134, "response": "Beta"}, "67": {"stimulus": 23, "trial": 67, "rt": 535, "response": "Beta"}, "68": {"stimulus": 76, "trial": 68, "rt": 482, "response": "Beta"}, "69": {"stimulus": 79, "trial": 69, "rt": 854, "response": "Alpha"}, "80": {"stimulus": 68, "trial": 80, "rt": 755, "response": "Beta"}, "52": {"stimulus": 21, "trial": 52, "rt": 1862, "response": "Beta"}, "53": {"stimulus": 55, "trial": 53, "rt": 767, "response": "Alpha"}, "24": {"stimulus": 16, "trial": 24, "rt": 1482, "response": "Alpha"}, "25": {"stimulus": 32, "trial": 25, "rt": 1023, "response": "Beta"}, "26": {"stimulus": 59, "trial": 26, "rt": 741, "response": "Beta"}, "27": {"stimulus": 12, "trial": 27, "rt": 830, "response": "Beta"}, "20": {"stimulus": 72, "trial": 20, "rt": 805, "response": "Alpha"}, "21": {"stimulus": 3, "trial": 21, "rt": 1860, "response": "Beta"}, "22": {"stimulus": 38, "trial": 22, "rt": 809, "response": "Beta"}, "23": {"stimulus": 13, "trial": 23, "rt": 979, "response": "Beta"}, "46": {"stimulus": 50, "trial": 46, "rt": 1080, "response": "Beta"}, "47": {"stimulus": 49, "trial": 47, "rt": 685, "response": "Beta"}, "44": {"stimulus": 65, "trial": 44, "rt": 844, "response": "Alpha"}, "45": {"stimulus": 24, "trial": 45, "rt": 686, "response": "Beta"}, "28": {"stimulus": 17, "trial": 28, "rt": 699, "response": "Alpha"}, "29": {"stimulus": 33, "trial": 29, "rt": 924, "response": "Beta"}, "40": {"stimulus": 70, "trial": 40, "rt": 820, "response": "Alpha"}, "41": {"stimulus": 62, "trial": 41, "rt": 1587, "response": "Alpha"}, "1": {"stimulus": 30, "trial": 1, "rt": 5673, "response": "Beta"}, "0": {"stimulus": 78, "trial": 0, "rt": 2930, "response": "Beta"}, "3": {"stimulus": 67, "trial": 3, "rt": 1247, "response": "Beta"}, "2": {"stimulus": 6, "trial": 2, "rt": 2291, "response": "Beta"}, "5": {"stimulus": 1, "trial": 5, "rt": 1208, "response": "Alpha"}, "4": {"stimulus": 31, "trial": 4, "rt": 767, "response": "Beta"}, "7": {"stimulus": 47, "trial": 7, "rt": 932, "response": "Alpha"}, "6": {"stimulus": 27, "trial": 6, "rt": 792, "response": "Alpha"}, "9": {"stimulus": 44, "trial": 9, "rt": 1185, "response": "Alpha"}, "8": {"stimulus": 15, "trial": 8, "rt": 1327, "response": "Alpha"}, "78": {"stimulus": 73, "trial": 78, "rt": 625, "response": "Alpha"}, "51": {"stimulus": 66, "trial": 51, "rt": 1031, "response": "Beta"}, "39": {"stimulus": 14, "trial": 39, "rt": 841, "response": "Beta"}, "65": {"stimulus": 26, "trial": 65, "rt": 654, "response": "Alpha"}, "76": {"stimulus": 43, "trial": 76, "rt": 747, "response": "Alpha"}, "75": {"stimulus": 25, "trial": 75, "rt": 2554, "response": "Alpha"}, "38": {"stimulus": 52, "trial": 38, "rt": 1588, "response": "Alpha"}, "73": {"stimulus": 48, "trial": 73, "rt": 1138, "response": "Beta"}, "72": {"stimulus": 9, "trial": 72, "rt": 1087, "response": "Alpha"}, "71": {"stimulus": 80, "trial": 71, "rt": 975, "response": "Alpha"}, "70": {"stimulus": 51, "trial": 70, "rt": 890, "response": "Beta"}, "59": {"stimulus": 19, "trial": 59, "rt": 1115, "response": "Beta"}, "79": {"stimulus": 18, "trial": 79, "rt": 557, "response": "Alpha"}, "58": {"stimulus": 60, "trial": 58, "rt": 482, "response": "Beta"}, "11": {"stimulus": 41, "trial": 11, "rt": 1329, "response": "Beta"}, "10": {"stimulus": 77, "trial": 10, "rt": 772, "response": "Beta"}, "13": {"stimulus": 5, "trial": 13, "rt": 1187, "response": "Beta"}, "12": {"stimulus": 42, "trial": 12, "rt": 1135, "response": "Beta"}, "15": {"stimulus": 28, "trial": 15, "rt": 1177, "response": "Alpha"}, "14": {"stimulus": 7, "trial": 14, "rt": 695, "response": "Alpha"}, "17": {"stimulus": 46, "trial": 17, "rt": 1018, "response": "Alpha"}, "16": {"stimulus": 57, "trial": 16, "rt": 1044, "response": "Beta"}, "19": {"stimulus": 75, "trial": 19, "rt": 864, "response": "Beta"}, "18": {"stimulus": 56, "trial": 18, "rt": 710, "response": "Alpha"}, "31": {"stimulus": 34, "trial": 31, "rt": 675, "response": "Beta"}, "30": {"stimulus": 29, "trial": 30, "rt": 1992, "response": "Beta"}, "37": {"stimulus": 20, "trial": 37, "rt": 933, "response": "Beta"}, "36": {"stimulus": 35, "trial": 36, "rt": 795, "response": "Alpha"}, "35": {"stimulus": 4, "trial": 35, "rt": 579, "response": "Beta"}, "34": {"stimulus": 74, "trial": 34, "rt": 1231, "response": "Beta"}, "33": {"stimulus": 8, "trial": 33, "rt": 865, "response": "Alpha"}, "55": {"stimulus": 2, "trial": 55, "rt": 1141, "response": "Alpha"}, "74": {"stimulus": 11, "trial": 74, "rt": 864, "response": "Alpha"}, "32": {"stimulus": 61, "trial": 32, "rt": 744, "response": "Alpha"}, "57": {"stimulus": 40, "trial": 57, "rt": 709, "response": "Beta"}, "50": {"stimulus": 53, "trial": 50, "rt": 1718, "response": "Alpha"}}}8, "response": "Alpha"}}}