{"generation": {"1": {"stimulus": 77, "trial": 1, "rt": 5704}, "0": {"stimulus": 72, "trial": 0, "rt": 8218}, "3": {"stimulus": 74, "trial": 3, "rt": 4090}, "2": {"stimulus": 73, "trial": 2, "rt": 6770}}, "info": {"finish": 1488822686820, "participant": 143, "exposed": true, "lab": false, "start": 1488822427579, "counterbalance": 6, "condition": "Row", "browser": {"platform": "MacIntel", "userAgent": "Mozilla/5.0 (Macintosh; Intel Mac OS X 10_12_3) AppleWebKit/537.36 (KHTML, like Gecko) Chrome/56.0.2924.87 Safari/537.36"}}, "experiment": {"Paradigm": "TACL", "Stimuli": "Size-Color Squares", "Experiment": "Generating-Categories"}, "observation": {"11": {"stimulus": 16, "trial": 11, "rt": 894}, "10": {"stimulus": 10, "trial": 10, "rt": 652}, "1": {"stimulus": 12, "trial": 1, "rt": 1026}, "0": {"stimulus": 14, "trial": 0, "rt": 3499}, "3": {"stimulus": 16, "trial": 3, "rt": 989}, "2": {"stimulus": 10, "trial": 2, "rt": 980}, "5": {"stimulus": 12, "trial": 5, "rt": 959}, "4": {"stimulus": 16, "trial": 4, "rt": 943}, "7": {"stimulus": 14, "trial": 7, "rt": 919}, "6": {"stimulus": 10, "trial": 6, "rt": 749}, "9": {"stimulus": 14, "trial": 9, "rt": 686}, "8": {"stimulus": 12, "trial": 8, "rt": 682}}, "generalization": {"56": {"stimulus": 57, "trial": 56, "rt": 503, "response": "Beta"}, "77": {"stimulus": 35, "trial": 77, "rt": 639, "response": "Alpha"}, "54": {"stimulus": 34, "trial": 54, "rt": 496, "response": "Alpha"}, "42": {"stimulus": 75, "trial": 42, "rt": 725, "response": "Beta"}, "48": {"stimulus": 2, "trial": 48, "rt": 741, "response": "Alpha"}, "43": {"stimulus": 50, "trial": 43, "rt": 1060, "response": "Beta"}, "60": {"stimulus": 52, "trial": 60, "rt": 1714, "response": "Alpha"}, "61": {"stimulus": 18, "trial": 61, "rt": 433, "response": "Alpha"}, "62": {"stimulus": 37, "trial": 62, "rt": 474, "response": "Alpha"}, "63": {"stimulus": 74, "trial": 63, "rt": 694, "response": "Beta"}, "64": {"stimulus": 12, "trial": 64, "rt": 641, "response": "Alpha"}, "49": {"stimulus": 67, "trial": 49, "rt": 880, "response": "Beta"}, "66": {"stimulus": 71, "trial": 66, "rt": 722, "response": "Beta"}, "67": {"stimulus": 70, "trial": 67, "rt": 425, "response": "Beta"}, "68": {"stimulus": 29, "trial": 68, "rt": 896, "response": "Alpha"}, "69": {"stimulus": 61, "trial": 69, "rt": 641, "response": "Beta"}, "80": {"stimulus": 39, "trial": 80, "rt": 711, "response": "Alpha"}, "52": {"stimulus": 7, "trial": 52, "rt": 742, "response": "Alpha"}, "53": {"stimulus": 38, "trial": 53, "rt": 789, "response": "Alpha"}, "24": {"stimulus": 15, "trial": 24, "rt": 657, "response": "Alpha"}, "25": {"stimulus": 20, "trial": 25, "rt": 627, "response": "Alpha"}, "26": {"stimulus": 8, "trial": 26, "rt": 579, "response": "Alpha"}, "27": {"stimulus": 58, "trial": 27, "rt": 589, "response": "Alpha"}, "20": {"stimulus": 43, "trial": 20, "rt": 1320, "response": "Beta"}, "21": {"stimulus": 28, "trial": 21, "rt": 1018, "response": "Alpha"}, "22": {"stimulus": 36, "trial": 22, "rt": 856, "response": "Beta"}, "23": {"stimulus": 40, "trial": 23, "rt": 727, "response": "Beta"}, "46": {"stimulus": 64, "trial": 46, "rt": 617, "response": "Beta"}, "47": {"stimulus": 62, "trial": 47, "rt": 512, "response": "Beta"}, "44": {"stimulus": 77, "trial": 44, "rt": 502, "response": "Beta"}, "45": {"stimulus": 65, "trial": 45, "rt": 619, "response": "Beta"}, "28": {"stimulus": 66, "trial": 28, "rt": 779, "response": "Beta"}, "29": {"stimulus": 25, "trial": 29, "rt": 697, "response": "Alpha"}, "40": {"stimulus": 76, "trial": 40, "rt": 792, "response": "Beta"}, "41": {"stimulus": 19, "trial": 41, "rt": 602, "response": "Alpha"}, "1": {"stimulus": 24, "trial": 1, "rt": 479, "response": "Alpha"}, "0": {"stimulus": 21, "trial": 0, "rt": 1675, "response": "Alpha"}, "3": {"stimulus": 16, "trial": 3, "rt": 719, "response": "Alpha"}, "2": {"stimulus": 55, "trial": 2, "rt": 795, "response": "Beta"}, "5": {"stimulus": 33, "trial": 5, "rt": 810, "response": "Alpha"}, "4": {"stimulus": 79, "trial": 4, "rt": 851, "response": "Beta"}, "7": {"stimulus": 47, "trial": 7, "rt": 1567, "response": "Beta"}, "6": {"stimulus": 9, "trial": 6, "rt": 549, "response": "Alpha"}, "9": {"stimulus": 31, "trial": 9, "rt": 872, "response": "Alpha"}, "8": {"stimulus": 54, "trial": 8, "rt": 704, "response": "Beta"}, "78": {"stimulus": 49, "trial": 78, "rt": 811, "response": "Beta"}, "51": {"stimulus": 27, "trial": 51, "rt": 888, "response": "Alpha"}, "39": {"stimulus": 26, "trial": 39, "rt": 606, "response": "Alpha"}, "65": {"stimulus": 44, "trial": 65, "rt": 914, "response": "Alpha"}, "76": {"stimulus": 32, "trial": 76, "rt": 689, "response": "Alpha"}, "75": {"stimulus": 63, "trial": 75, "rt": 756, "response": "Beta"}, "38": {"stimulus": 10, "trial": 38, "rt": 650, "response": "Alpha"}, "73": {"stimulus": 11, "trial": 73, "rt": 611, "response": "Alpha"}, "72": {"stimulus": 6, "trial": 72, "rt": 462, "response": "Alpha"}, "71": {"stimulus": 14, "trial": 71, "rt": 464, "response": "Alpha"}, "70": {"stimulus": 23, "trial": 70, "rt": 626, "response": "Alpha"}, "59": {"stimulus": 72, "trial": 59, "rt": 671, "response": "Beta"}, "79": {"stimulus": 73, "trial": 79, "rt": 502, "response": "Beta"}, "58": {"stimulus": 3, "trial": 58, "rt": 735, "response": "Alpha"}, "11": {"stimulus": 30, "trial": 11, "rt": 1267, "response": "Alpha"}, "10": {"stimulus": 5, "trial": 10, "rt": 1067, "response": "Alpha"}, "13": {"stimulus": 53, "trial": 13, "rt": 826, "response": "Beta"}, "12": {"stimulus": 51, "trial": 12, "rt": 777, "response": "Beta"}, "15": {"stimulus": 17, "trial": 15, "rt": 843, "response": "Alpha"}, "14": {"stimulus": 41, "trial": 14, "rt": 495, "response": "Beta"}, "17": {"stimulus": 78, "trial": 17, "rt": 694, "response": "Beta"}, "16": {"stimulus": 60, "trial": 16, "rt": 1012, "response": "Beta"}, "19": {"stimulus": 13, "trial": 19, "rt": 851, "response": "Alpha"}, "18": {"stimulus": 80, "trial": 18, "rt": 478, "response": "Beta"}, "31": {"stimulus": 46, "trial": 31, "rt": 851, "response": "Beta"}, "30": {"stimulus": 0, "trial": 30, "rt": 580, "response": "Alpha"}, "37": {"stimulus": 56, "trial": 37, "rt": 526, "response": "Beta"}, "36": {"stimulus": 48, "trial": 36, "rt": 533, "response": "Beta"}, "35": {"stimulus": 42, "trial": 35, "rt": 1322, "response": "Beta"}, "34": {"stimulus": 59, "trial": 34, "rt": 696, "response": "Beta"}, "33": {"stimulus": 22, "trial": 33, "rt": 688, "response": "Alpha"}, "55": {"stimulus": 69, "trial": 55, "rt": 741, "response": "Beta"}, "74": {"stimulus": 1, "trial": 74, "rt": 517, "response": "Alpha"}, "32": {"stimulus": 68, "trial": 32, "rt": 587, "response": "Beta"}, "57": {"stimulus": 45, "trial": 57, "rt": 719, "response": "Beta"}, "50": {"stimulus": 4, "trial": 50, "rt": 620, "response": "Alpha"}}}