{"generation": {"1": {"stimulus": 40, "trial": 1, "rt": 47535}, "0": {"stimulus": 31, "trial": 0, "rt": 12010}, "3": {"stimulus": 30, "trial": 3, "rt": 31506}, "2": {"stimulus": 32, "trial": 2, "rt": 10309}}, "info": {"finish": 1488823044586, "participant": 144, "exposed": true, "lab": false, "start": 1488822437249, "counterbalance": 3, "condition": "Cluster", "browser": {"platform": "MacIntel", "userAgent": "Mozilla/5.0 (Macintosh; Intel Mac OS X 10_12_3) AppleWebKit/537.36 (KHTML, like Gecko) Chrome/56.0.2924.87 Safari/537.36"}}, "experiment": {"Paradigm": "TACL", "Stimuli": "Size-Color Squares", "Experiment": "Generating-Categories"}, "observation": {"11": {"stimulus": 34, "trial": 11, "rt": 2187}, "10": {"stimulus": 14, "trial": 10, "rt": 984}, "1": {"stimulus": 34, "trial": 1, "rt": 1052}, "0": {"stimulus": 16, "trial": 0, "rt": 1722}, "3": {"stimulus": 14, "trial": 3, "rt": 1163}, "2": {"stimulus": 32, "trial": 2, "rt": 1209}, "5": {"stimulus": 34, "trial": 5, "rt": 1287}, "4": {"stimulus": 32, "trial": 4, "rt": 1074}, "7": {"stimulus": 14, "trial": 7, "rt": 1997}, "6": {"stimulus": 16, "trial": 6, "rt": 8104}, "9": {"stimulus": 32, "trial": 9, "rt": 1028}, "8": {"stimulus": 16, "trial": 8, "rt": 14752}}, "generalization": {"56": {"stimulus": 12, "trial": 56, "rt": 805, "response": "Beta"}, "77": {"stimulus": 24, "trial": 77, "rt": 692, "response": "Alpha"}, "54": {"stimulus": 56, "trial": 54, "rt": 680, "response": "Beta"}, "42": {"stimulus": 26, "trial": 42, "rt": 1141, "response": "Beta"}, "48": {"stimulus": 51, "trial": 48, "rt": 567, "response": "Beta"}, "43": {"stimulus": 4, "trial": 43, "rt": 1018, "response": "Beta"}, "60": {"stimulus": 33, "trial": 60, "rt": 904, "response": "Alpha"}, "61": {"stimulus": 1, "trial": 61, "rt": 815, "response": "Beta"}, "62": {"stimulus": 11, "trial": 62, "rt": 1444, "response": "Alpha"}, "63": {"stimulus": 60, "trial": 63, "rt": 838, "response": "Beta"}, "64": {"stimulus": 31, "trial": 64, "rt": 893, "response": "Alpha"}, "49": {"stimulus": 61, "trial": 49, "rt": 748, "response": "Beta"}, "66": {"stimulus": 17, "trial": 66, "rt": 1770, "response": "Beta"}, "67": {"stimulus": 21, "trial": 67, "rt": 1084, "response": "Alpha"}, "68": {"stimulus": 15, "trial": 68, "rt": 3852, "response": "Alpha"}, "69": {"stimulus": 44, "trial": 69, "rt": 2368, "response": "Alpha"}, "80": {"stimulus": 8, "trial": 80, "rt": 1153, "response": "Beta"}, "52": {"stimulus": 55, "trial": 52, "rt": 602, "response": "Beta"}, "53": {"stimulus": 40, "trial": 53, "rt": 1107, "response": "Alpha"}, "24": {"stimulus": 9, "trial": 24, "rt": 172739, "response": "Alpha"}, "25": {"stimulus": 23, "trial": 25, "rt": 838, "response": "Alpha"}, "26": {"stimulus": 13, "trial": 26, "rt": 894, "response": "Beta"}, "27": {"stimulus": 46, "trial": 27, "rt": 804, "response": "Beta"}, "20": {"stimulus": 58, "trial": 20, "rt": 838, "response": "Beta"}, "21": {"stimulus": 48, "trial": 21, "rt": 1883, "response": "Beta"}, "22": {"stimulus": 45, "trial": 22, "rt": 3392, "response": "Alpha"}, "23": {"stimulus": 30, "trial": 23, "rt": 1153, "response": "Alpha"}, "46": {"stimulus": 67, "trial": 46, "rt": 5822, "response": "Beta"}, "47": {"stimulus": 68, "trial": 47, "rt": 7913, "response": "Beta"}, "44": {"stimulus": 54, "trial": 44, "rt": 771, "response": "Beta"}, "45": {"stimulus": 49, "trial": 45, "rt": 2222, "response": "Beta"}, "28": {"stimulus": 74, "trial": 28, "rt": 4416, "response": "Beta"}, "29": {"stimulus": 63, "trial": 29, "rt": 690, "response": "Beta"}, "40": {"stimulus": 27, "trial": 40, "rt": 928, "response": "Alpha"}, "41": {"stimulus": 53, "trial": 41, "rt": 1164, "response": "Beta"}, "1": {"stimulus": 57, "trial": 1, "rt": 759, "response": "Beta"}, "0": {"stimulus": 69, "trial": 0, "rt": 2783, "response": "Beta"}, "3": {"stimulus": 39, "trial": 3, "rt": 1300, "response": "Alpha"}, "2": {"stimulus": 50, "trial": 2, "rt": 715, "response": "Beta"}, "5": {"stimulus": 41, "trial": 5, "rt": 804, "response": "Alpha"}, "4": {"stimulus": 70, "trial": 4, "rt": 712, "response": "Beta"}, "7": {"stimulus": 71, "trial": 7, "rt": 804, "response": "Beta"}, "6": {"stimulus": 35, "trial": 6, "rt": 1467, "response": "Beta"}, "9": {"stimulus": 5, "trial": 9, "rt": 680, "response": "Beta"}, "8": {"stimulus": 7, "trial": 8, "rt": 725, "response": "Beta"}, "78": {"stimulus": 52, "trial": 78, "rt": 1198, "response": "Beta"}, "51": {"stimulus": 14, "trial": 51, "rt": 1164, "response": "Beta"}, "39": {"stimulus": 73, "trial": 39, "rt": 826, "response": "Beta"}, "65": {"stimulus": 19, "trial": 65, "rt": 1738, "response": "Alpha"}, "76": {"stimulus": 62, "trial": 76, "rt": 726, "response": "Beta"}, "75": {"stimulus": 34, "trial": 75, "rt": 646, "response": "Alpha"}, "38": {"stimulus": 76, "trial": 38, "rt": 748, "response": "Beta"}, "73": {"stimulus": 16, "trial": 73, "rt": 815, "response": "Alpha"}, "72": {"stimulus": 42, "trial": 72, "rt": 692, "response": "Alpha"}, "71": {"stimulus": 28, "trial": 71, "rt": 668, "response": "Alpha"}, "70": {"stimulus": 36, "trial": 70, "rt": 894, "response": "Alpha"}, "59": {"stimulus": 65, "trial": 59, "rt": 759, "response": "Beta"}, "79": {"stimulus": 38, "trial": 79, "rt": 1130, "response": "Alpha"}, "58": {"stimulus": 80, "trial": 58, "rt": 725, "response": "Beta"}, "11": {"stimulus": 25, "trial": 11, "rt": 905, "response": "Alpha"}, "10": {"stimulus": 20, "trial": 10, "rt": 915, "response": "Alpha"}, "13": {"stimulus": 47, "trial": 13, "rt": 2345, "response": "Beta"}, "12": {"stimulus": 72, "trial": 12, "rt": 748, "response": "Beta"}, "15": {"stimulus": 59, "trial": 15, "rt": 535, "response": "Beta"}, "14": {"stimulus": 78, "trial": 14, "rt": 714, "response": "Beta"}, "17": {"stimulus": 37, "trial": 17, "rt": 951, "response": "Alpha"}, "16": {"stimulus": 75, "trial": 16, "rt": 488, "response": "Beta"}, "19": {"stimulus": 22, "trial": 19, "rt": 1084, "response": "Alpha"}, "18": {"stimulus": 79, "trial": 18, "rt": 602, "response": "Beta"}, "31": {"stimulus": 77, "trial": 31, "rt": 691, "response": "Beta"}, "30": {"stimulus": 10, "trial": 30, "rt": 1210, "response": "Beta"}, "37": {"stimulus": 29, "trial": 37, "rt": 995, "response": "Alpha"}, "36": {"stimulus": 3, "trial": 36, "rt": 770, "response": "Beta"}, "35": {"stimulus": 0, "trial": 35, "rt": 814, "response": "Beta"}, "34": {"stimulus": 66, "trial": 34, "rt": 1051, "response": "Beta"}, "33": {"stimulus": 18, "trial": 33, "rt": 1175, "response": "Alpha"}, "55": {"stimulus": 43, "trial": 55, "rt": 961, "response": "Alpha"}, "74": {"stimulus": 32, "trial": 74, "rt": 724, "response": "Alpha"}, "32": {"stimulus": 6, "trial": 32, "rt": 792, "response": "Beta"}, "57": {"stimulus": 2, "trial": 57, "rt": 770, "response": "Beta"}, "50": {"stimulus": 64, "trial": 50, "rt": 658, "response": "Beta"}}}