{"generation": {"1": {"stimulus": 63, "trial": 1, "rt": 14678}, "0": {"stimulus": 8, "trial": 0, "rt": 25893}, "3": {"stimulus": 2, "trial": 3, "rt": 9987}, "2": {"stimulus": 54, "trial": 2, "rt": 14668}}, "info": {"participant": 145, "exposed": true, "lab": false, "start": 1488822440330, "counterbalance": 0, "condition": "XOR", "browser": {"platform": "Win32", "userAgent": "Mozilla/5.0 (Windows NT 6.1; Win64; x64) AppleWebKit/537.36 (KHTML, like Gecko) Chrome/56.0.2924.87 Safari/537.36"}}, "experiment": {"Paradigm": "TACL", "Stimuli": "Size-Color Squares", "Experiment": "Generating-Categories"}, "observation": {"11": {"stimulus": 70, "trial": 11, "rt": 1465}, "10": {"stimulus": 10, "trial": 10, "rt": 1275}, "1": {"stimulus": 10, "trial": 1, "rt": 3643}, "0": {"stimulus": 80, "trial": 0, "rt": 6119}, "3": {"stimulus": 0, "trial": 3, "rt": 1772}, "2": {"stimulus": 70, "trial": 2, "rt": 3348}, "5": {"stimulus": 0, "trial": 5, "rt": 1100}, "4": {"stimulus": 70, "trial": 4, "rt": 3865}, "7": {"stimulus": 10, "trial": 7, "rt": 1262}, "6": {"stimulus": 80, "trial": 6, "rt": 1537}, "9": {"stimulus": 80, "trial": 9, "rt": 1407}, "8": {"stimulus": 0, "trial": 8, "rt": 2640}}, "generalization": {"56": {"stimulus": 1, "trial": 56, "rt": 1346, "response": "Alpha"}, "77": {"stimulus": 0, "trial": 77, "rt": 1258, "response": "Alpha"}, "54": {"stimulus": 58, "trial": 54, "rt": 3743, "response": "Alpha"}, "42": {"stimulus": 53, "trial": 42, "rt": 814, "response": "Beta"}, "48": {"stimulus": 55, "trial": 48, "rt": 2499, "response": "Beta"}, "43": {"stimulus": 79, "trial": 43, "rt": 1213, "response": "Alpha"}, "60": {"stimulus": 68, "trial": 60, "rt": 968, "response": "Alpha"}, "61": {"stimulus": 57, "trial": 61, "rt": 1208, "response": "Alpha"}, "62": {"stimulus": 27, "trial": 62, "rt": 1491, "response": "Beta"}, "63": {"stimulus": 41, "trial": 63, "rt": 958, "response": "Beta"}, "64": {"stimulus": 37, "trial": 64, "rt": 638, "response": "Beta"}, "49": {"stimulus": 32, "trial": 49, "rt": 989, "response": "Beta"}, "66": {"stimulus": 47, "trial": 66, "rt": 858, "response": "Beta"}, "67": {"stimulus": 13, "trial": 67, "rt": 977, "response": "Beta"}, "68": {"stimulus": 29, "trial": 68, "rt": 683, "response": "Beta"}, "69": {"stimulus": 40, "trial": 69, "rt": 693, "response": "Beta"}, "80": {"stimulus": 31, "trial": 80, "rt": 1135, "response": "Beta"}, "52": {"stimulus": 63, "trial": 52, "rt": 1217, "response": "Beta"}, "53": {"stimulus": 16, "trial": 53, "rt": 1023, "response": "Beta"}, "24": {"stimulus": 10, "trial": 24, "rt": 813, "response": "Alpha"}, "25": {"stimulus": 67, "trial": 25, "rt": 2122, "response": "Alpha"}, "26": {"stimulus": 48, "trial": 26, "rt": 1349, "response": "Beta"}, "27": {"stimulus": 24, "trial": 27, "rt": 935, "response": "Beta"}, "20": {"stimulus": 44, "trial": 20, "rt": 571, "response": "Beta"}, "21": {"stimulus": 75, "trial": 21, "rt": 2537, "response": "Alpha"}, "22": {"stimulus": 62, "trial": 22, "rt": 1307, "response": "Beta"}, "23": {"stimulus": 20, "trial": 23, "rt": 1749, "response": "Alpha"}, "46": {"stimulus": 9, "trial": 46, "rt": 1204, "response": "Alpha"}, "47": {"stimulus": 3, "trial": 47, "rt": 1206, "response": "Beta"}, "44": {"stimulus": 7, "trial": 44, "rt": 1481, "response": "Beta"}, "45": {"stimulus": 71, "trial": 45, "rt": 2037, "response": "Beta"}, "28": {"stimulus": 33, "trial": 28, "rt": 619, "response": "Beta"}, "29": {"stimulus": 59, "trial": 29, "rt": 607, "response": "Beta"}, "40": {"stimulus": 5, "trial": 40, "rt": 890, "response": "Beta"}, "41": {"stimulus": 42, "trial": 41, "rt": 620, "response": "Beta"}, "1": {"stimulus": 22, "trial": 1, "rt": 2588, "response": "Beta"}, "0": {"stimulus": 26, "trial": 0, "rt": 4050, "response": "Beta"}, "3": {"stimulus": 70, "trial": 3, "rt": 1793, "response": "Alpha"}, "2": {"stimulus": 15, "trial": 2, "rt": 1070, "response": "Beta"}, "5": {"stimulus": 12, "trial": 5, "rt": 4039, "response": "Beta"}, "4": {"stimulus": 73, "trial": 4, "rt": 2323, "response": "Beta"}, "7": {"stimulus": 50, "trial": 7, "rt": 4208, "response": "Alpha"}, "6": {"stimulus": 18, "trial": 6, "rt": 1207, "response": "Alpha"}, "9": {"stimulus": 8, "trial": 9, "rt": 1292, "response": "Beta"}, "8": {"stimulus": 6, "trial": 8, "rt": 2094, "response": "Beta"}, "78": {"stimulus": 74, "trial": 78, "rt": 4245, "response": "Alpha"}, "51": {"stimulus": 38, "trial": 51, "rt": 706, "response": "Beta"}, "39": {"stimulus": 28, "trial": 39, "rt": 949, "response": "Beta"}, "65": {"stimulus": 39, "trial": 65, "rt": 590, "response": "Beta"}, "76": {"stimulus": 54, "trial": 76, "rt": 1074, "response": "Beta"}, "75": {"stimulus": 30, "trial": 75, "rt": 769, "response": "Beta"}, "38": {"stimulus": 35, "trial": 38, "rt": 875, "response": "Beta"}, "73": {"stimulus": 77, "trial": 73, "rt": 1223, "response": "Alpha"}, "72": {"stimulus": 14, "trial": 72, "rt": 693, "response": "Beta"}, "71": {"stimulus": 21, "trial": 71, "rt": 1355, "response": "Beta"}, "70": {"stimulus": 46, "trial": 70, "rt": 871, "response": "Beta"}, "59": {"stimulus": 69, "trial": 59, "rt": 938, "response": "Alpha"}, "79": {"stimulus": 76, "trial": 79, "rt": 842, "response": "Alpha"}, "58": {"stimulus": 66, "trial": 58, "rt": 1942, "response": "Alpha"}, "11": {"stimulus": 72, "trial": 11, "rt": 1956, "response": "Beta"}, "10": {"stimulus": 23, "trial": 10, "rt": 910, "response": "Beta"}, "13": {"stimulus": 56, "trial": 13, "rt": 2892, "response": "Alpha"}, "12": {"stimulus": 51, "trial": 12, "rt": 2539, "response": "Beta"}, "15": {"stimulus": 80, "trial": 15, "rt": 2052, "response": "Beta"}, "14": {"stimulus": 78, "trial": 14, "rt": 994, "response": "Alpha"}, "17": {"stimulus": 61, "trial": 17, "rt": 1537, "response": "Alpha"}, "16": {"stimulus": 25, "trial": 16, "rt": 1126, "response": "Beta"}, "19": {"stimulus": 34, "trial": 19, "rt": 858, "response": "Beta"}, "18": {"stimulus": 64, "trial": 18, "rt": 1748, "response": "Beta"}, "31": {"stimulus": 45, "trial": 31, "rt": 1222, "response": "Beta"}, "30": {"stimulus": 19, "trial": 30, "rt": 1765, "response": "Alpha"}, "37": {"stimulus": 52, "trial": 37, "rt": 1016, "response": "Beta"}, "36": {"stimulus": 65, "trial": 36, "rt": 1358, "response": "Beta"}, "35": {"stimulus": 43, "trial": 35, "rt": 1048, "response": "Beta"}, "34": {"stimulus": 11, "trial": 34, "rt": 1925, "response": "Alpha"}, "33": {"stimulus": 4, "trial": 33, "rt": 1466, "response": "Beta"}, "55": {"stimulus": 17, "trial": 55, "rt": 1090, "response": "Beta"}, "74": {"stimulus": 49, "trial": 74, "rt": 1450, "response": "Beta"}, "32": {"stimulus": 60, "trial": 32, "rt": 2547, "response": "Alpha"}, "57": {"stimulus": 2, "trial": 57, "rt": 1034, "response": "Alpha"}, "50": {"stimulus": 36, "trial": 50, "rt": 905, "response": "Beta"}}}05, "response": "Beta"}}}