{"generation": {"1": {"stimulus": 80, "trial": 1, "rt": 9723}, "0": {"stimulus": 8, "trial": 0, "rt": 28890}, "3": {"stimulus": 17, "trial": 3, "rt": 4434}, "2": {"stimulus": 71, "trial": 2, "rt": 6457}}, "info": {"finish": 1488822680333, "participant": 146, "exposed": true, "lab": false, "start": 1488822452047, "counterbalance": 1, "condition": "XOR", "browser": {"platform": "MacIntel", "userAgent": "Mozilla/5.0 (Macintosh; Intel Mac OS X 10_10_5) AppleWebKit/537.36 (KHTML, like Gecko) Chrome/56.0.2924.87 Safari/537.36 OPR/43.0.2442.991"}}, "experiment": {"Paradigm": "TACL", "Stimuli": "Size-Color Squares", "Experiment": "Generating-Categories"}, "observation": {"11": {"stimulus": 0, "trial": 11, "rt": 988}, "10": {"stimulus": 10, "trial": 10, "rt": 1121}, "1": {"stimulus": 70, "trial": 1, "rt": 1386}, "0": {"stimulus": 80, "trial": 0, "rt": 2145}, "3": {"stimulus": 10, "trial": 3, "rt": 1237}, "2": {"stimulus": 0, "trial": 2, "rt": 2044}, "5": {"stimulus": 10, "trial": 5, "rt": 1278}, "4": {"stimulus": 0, "trial": 4, "rt": 1196}, "7": {"stimulus": 80, "trial": 7, "rt": 1072}, "6": {"stimulus": 70, "trial": 6, "rt": 1178}, "9": {"stimulus": 80, "trial": 9, "rt": 986}, "8": {"stimulus": 70, "trial": 8, "rt": 1024}}, "generalization": {"56": {"stimulus": 76, "trial": 56, "rt": 601, "response": "Alpha"}, "77": {"stimulus": 8, "trial": 77, "rt": 1240, "response": "Beta"}, "54": {"stimulus": 62, "trial": 54, "rt": 2228, "response": "Beta"}, "42": {"stimulus": 67, "trial": 42, "rt": 758, "response": "Alpha"}, "48": {"stimulus": 19, "trial": 48, "rt": 571, "response": "Alpha"}, "43": {"stimulus": 33, "trial": 43, "rt": 586, "response": "Alpha"}, "60": {"stimulus": 56, "trial": 60, "rt": 553, "response": "Alpha"}, "61": {"stimulus": 64, "trial": 61, "rt": 563, "response": "Alpha"}, "62": {"stimulus": 29, "trial": 62, "rt": 819, "response": "Alpha"}, "63": {"stimulus": 0, "trial": 63, "rt": 648, "response": "Alpha"}, "64": {"stimulus": 72, "trial": 64, "rt": 641, "response": "Alpha"}, "49": {"stimulus": 3, "trial": 49, "rt": 578, "response": "Alpha"}, "66": {"stimulus": 74, "trial": 66, "rt": 592, "response": "Alpha"}, "67": {"stimulus": 15, "trial": 67, "rt": 626, "response": "Alpha"}, "68": {"stimulus": 36, "trial": 68, "rt": 579, "response": "Alpha"}, "69": {"stimulus": 60, "trial": 69, "rt": 635, "response": "Alpha"}, "80": {"stimulus": 5, "trial": 80, "rt": 515, "response": "Alpha"}, "52": {"stimulus": 44, "trial": 52, "rt": 1133, "response": "Beta"}, "53": {"stimulus": 49, "trial": 53, "rt": 852, "response": "Alpha"}, "24": {"stimulus": 35, "trial": 24, "rt": 2509, "response": "Beta"}, "25": {"stimulus": 21, "trial": 25, "rt": 598, "response": "Alpha"}, "26": {"stimulus": 58, "trial": 26, "rt": 367, "response": "Alpha"}, "27": {"stimulus": 50, "trial": 27, "rt": 256, "response": "Alpha"}, "20": {"stimulus": 42, "trial": 20, "rt": 2088, "response": "Beta"}, "21": {"stimulus": 4, "trial": 21, "rt": 581, "response": "Alpha"}, "22": {"stimulus": 69, "trial": 22, "rt": 2193, "response": "Beta"}, "23": {"stimulus": 51, "trial": 23, "rt": 3505, "response": "Beta"}, "46": {"stimulus": 48, "trial": 46, "rt": 592, "response": "Alpha"}, "47": {"stimulus": 1, "trial": 47, "rt": 654, "response": "Alpha"}, "44": {"stimulus": 54, "trial": 44, "rt": 609, "response": "Alpha"}, "45": {"stimulus": 39, "trial": 45, "rt": 688, "response": "Alpha"}, "28": {"stimulus": 16, "trial": 28, "rt": 367, "response": "Alpha"}, "29": {"stimulus": 17, "trial": 29, "rt": 1137, "response": "Beta"}, "40": {"stimulus": 78, "trial": 40, "rt": 1259, "response": "Alpha"}, "41": {"stimulus": 43, "trial": 41, "rt": 1875, "response": "Alpha"}, "1": {"stimulus": 68, "trial": 1, "rt": 1376, "response": "Alpha"}, "0": {"stimulus": 61, "trial": 0, "rt": 5441, "response": "Alpha"}, "3": {"stimulus": 55, "trial": 3, "rt": 1144, "response": "Alpha"}, "2": {"stimulus": 10, "trial": 2, "rt": 1441, "response": "Alpha"}, "5": {"stimulus": 47, "trial": 5, "rt": 679, "response": "Alpha"}, "4": {"stimulus": 57, "trial": 4, "rt": 892, "response": "Alpha"}, "7": {"stimulus": 18, "trial": 7, "rt": 1028, "response": "Alpha"}, "6": {"stimulus": 22, "trial": 6, "rt": 979, "response": "Alpha"}, "9": {"stimulus": 7, "trial": 9, "rt": 1083, "response": "Beta"}, "8": {"stimulus": 59, "trial": 8, "rt": 1704, "response": "Beta"}, "78": {"stimulus": 79, "trial": 78, "rt": 1650, "response": "Beta"}, "51": {"stimulus": 30, "trial": 51, "rt": 660, "response": "Alpha"}, "39": {"stimulus": 41, "trial": 39, "rt": 659, "response": "Alpha"}, "65": {"stimulus": 27, "trial": 65, "rt": 541, "response": "Alpha"}, "76": {"stimulus": 38, "trial": 76, "rt": 544, "response": "Alpha"}, "75": {"stimulus": 32, "trial": 75, "rt": 556, "response": "Alpha"}, "38": {"stimulus": 25, "trial": 38, "rt": 1905, "response": "Beta"}, "73": {"stimulus": 24, "trial": 73, "rt": 1131, "response": "Alpha"}, "72": {"stimulus": 70, "trial": 72, "rt": 1053, "response": "Beta"}, "71": {"stimulus": 73, "trial": 71, "rt": 766, "response": "Alpha"}, "70": {"stimulus": 53, "trial": 70, "rt": 564, "response": "Alpha"}, "59": {"stimulus": 28, "trial": 59, "rt": 636, "response": "Alpha"}, "79": {"stimulus": 26, "trial": 79, "rt": 896, "response": "Beta"}, "58": {"stimulus": 77, "trial": 58, "rt": 612, "response": "Alpha"}, "11": {"stimulus": 65, "trial": 11, "rt": 837, "response": "Alpha"}, "10": {"stimulus": 52, "trial": 10, "rt": 1169, "response": "Beta"}, "13": {"stimulus": 80, "trial": 13, "rt": 1241, "response": "Beta"}, "12": {"stimulus": 6, "trial": 12, "rt": 2706, "response": "Beta"}, "15": {"stimulus": 2, "trial": 15, "rt": 576, "response": "Alpha"}, "14": {"stimulus": 9, "trial": 14, "rt": 563, "response": "Alpha"}, "17": {"stimulus": 46, "trial": 17, "rt": 657, "response": "Alpha"}, "16": {"stimulus": 20, "trial": 16, "rt": 555, "response": "Alpha"}, "19": {"stimulus": 23, "trial": 19, "rt": 617, "response": "Alpha"}, "18": {"stimulus": 37, "trial": 18, "rt": 506, "response": "Alpha"}, "31": {"stimulus": 45, "trial": 31, "rt": 467, "response": "Alpha"}, "30": {"stimulus": 13, "trial": 30, "rt": 533, "response": "Alpha"}, "37": {"stimulus": 34, "trial": 37, "rt": 2344, "response": "Alpha"}, "36": {"stimulus": 14, "trial": 36, "rt": 1056, "response": "Alpha"}, "35": {"stimulus": 12, "trial": 35, "rt": 825, "response": "Alpha"}, "34": {"stimulus": 31, "trial": 34, "rt": 817, "response": "Alpha"}, "33": {"stimulus": 66, "trial": 33, "rt": 1005, "response": "Alpha"}, "55": {"stimulus": 75, "trial": 55, "rt": 621, "response": "Alpha"}, "74": {"stimulus": 63, "trial": 74, "rt": 552, "response": "Alpha"}, "32": {"stimulus": 71, "trial": 32, "rt": 450, "response": "Alpha"}, "57": {"stimulus": 11, "trial": 57, "rt": 1129, "response": "Alpha"}, "50": {"stimulus": 40, "trial": 50, "rt": 558, "response": "Alpha"}}}