{"generation": {"1": {"stimulus": 8, "trial": 1, "rt": 7603}, "0": {"stimulus": 0, "trial": 0, "rt": 32945}, "3": {"stimulus": 36, "trial": 3, "rt": 5846}, "2": {"stimulus": 44, "trial": 2, "rt": 11646}}, "info": {"finish": 1488822820816, "participant": 148, "exposed": true, "lab": false, "start": 1488822476752, "counterbalance": 3, "condition": "XOR", "browser": {"platform": "Win32", "userAgent": "Mozilla/5.0 (Windows NT 10.0; Win64; x64) AppleWebKit/537.36 (KHTML, like Gecko) Chrome/56.0.2924.87 Safari/537.36"}}, "experiment": {"Paradigm": "TACL", "Stimuli": "Size-Color Squares", "Experiment": "Generating-Categories"}, "observation": {"11": {"stimulus": 10, "trial": 11, "rt": 1067}, "10": {"stimulus": 0, "trial": 10, "rt": 1032}, "1": {"stimulus": 70, "trial": 1, "rt": 2378}, "0": {"stimulus": 10, "trial": 0, "rt": 2824}, "3": {"stimulus": 80, "trial": 3, "rt": 1257}, "2": {"stimulus": 0, "trial": 2, "rt": 2022}, "5": {"stimulus": 70, "trial": 5, "rt": 1238}, "4": {"stimulus": 80, "trial": 4, "rt": 1265}, "7": {"stimulus": 0, "trial": 7, "rt": 975}, "6": {"stimulus": 10, "trial": 6, "rt": 1061}, "9": {"stimulus": 80, "trial": 9, "rt": 1053}, "8": {"stimulus": 70, "trial": 8, "rt": 911}}, "generalization": {"56": {"stimulus": 64, "trial": 56, "rt": 2458, "response": "Alpha"}, "77": {"stimulus": 30, "trial": 77, "rt": 1097, "response": "Beta"}, "54": {"stimulus": 59, "trial": 54, "rt": 1270, "response": "Alpha"}, "42": {"stimulus": 22, "trial": 42, "rt": 1282, "response": "Beta"}, "48": {"stimulus": 10, "trial": 48, "rt": 605, "response": "Beta"}, "43": {"stimulus": 32, "trial": 43, "rt": 877, "response": "Beta"}, "60": {"stimulus": 15, "trial": 60, "rt": 2381, "response": "Beta"}, "61": {"stimulus": 56, "trial": 61, "rt": 5891, "response": "Alpha"}, "62": {"stimulus": 9, "trial": 62, "rt": 2069, "response": "Beta"}, "63": {"stimulus": 75, "trial": 63, "rt": 1530, "response": "Alpha"}, "64": {"stimulus": 51, "trial": 64, "rt": 6277, "response": "Alpha"}, "49": {"stimulus": 1, "trial": 49, "rt": 653, "response": "Beta"}, "66": {"stimulus": 69, "trial": 66, "rt": 13482, "response": "Beta"}, "67": {"stimulus": 31, "trial": 67, "rt": 16257, "response": "Beta"}, "68": {"stimulus": 80, "trial": 68, "rt": 1666, "response": "Alpha"}, "69": {"stimulus": 23, "trial": 69, "rt": 1287, "response": "Beta"}, "80": {"stimulus": 65, "trial": 80, "rt": 620, "response": "Alpha"}, "52": {"stimulus": 60, "trial": 52, "rt": 1001, "response": "Alpha"}, "53": {"stimulus": 34, "trial": 53, "rt": 1472, "response": "Alpha"}, "24": {"stimulus": 11, "trial": 24, "rt": 1082, "response": "Beta"}, "25": {"stimulus": 57, "trial": 25, "rt": 1188, "response": "Alpha"}, "26": {"stimulus": 76, "trial": 26, "rt": 914, "response": "Alpha"}, "27": {"stimulus": 48, "trial": 27, "rt": 1190, "response": "Beta"}, "20": {"stimulus": 2, "trial": 20, "rt": 2082, "response": "Beta"}, "21": {"stimulus": 0, "trial": 21, "rt": 918, "response": "Beta"}, "22": {"stimulus": 66, "trial": 22, "rt": 1368, "response": "Alpha"}, "23": {"stimulus": 6, "trial": 23, "rt": 1248, "response": "Beta"}, "46": {"stimulus": 17, "trial": 46, "rt": 713, "response": "Beta"}, "47": {"stimulus": 3, "trial": 47, "rt": 721, "response": "Beta"}, "44": {"stimulus": 29, "trial": 44, "rt": 872, "response": "Beta"}, "45": {"stimulus": 5, "trial": 45, "rt": 987, "response": "Beta"}, "28": {"stimulus": 58, "trial": 28, "rt": 1849, "response": "Beta"}, "29": {"stimulus": 21, "trial": 29, "rt": 911, "response": "Alpha"}, "40": {"stimulus": 52, "trial": 40, "rt": 931, "response": "Beta"}, "41": {"stimulus": 74, "trial": 41, "rt": 1497, "response": "Alpha"}, "1": {"stimulus": 79, "trial": 1, "rt": 1512, "response": "Alpha"}, "0": {"stimulus": 45, "trial": 0, "rt": 3027, "response": "Beta"}, "3": {"stimulus": 67, "trial": 3, "rt": 949, "response": "Alpha"}, "2": {"stimulus": 78, "trial": 2, "rt": 1272, "response": "Alpha"}, "5": {"stimulus": 41, "trial": 5, "rt": 1381, "response": "Beta"}, "4": {"stimulus": 73, "trial": 4, "rt": 1372, "response": "Alpha"}, "7": {"stimulus": 68, "trial": 7, "rt": 1184, "response": "Alpha"}, "6": {"stimulus": 44, "trial": 6, "rt": 1200, "response": "Beta"}, "9": {"stimulus": 53, "trial": 9, "rt": 1990, "response": "Beta"}, "8": {"stimulus": 26, "trial": 8, "rt": 3496, "response": "Beta"}, "78": {"stimulus": 27, "trial": 78, "rt": 1225, "response": "Beta"}, "51": {"stimulus": 47, "trial": 51, "rt": 1262, "response": "Beta"}, "39": {"stimulus": 49, "trial": 39, "rt": 819, "response": "Alpha"}, "65": {"stimulus": 25, "trial": 65, "rt": 1737, "response": "Beta"}, "76": {"stimulus": 28, "trial": 76, "rt": 10355, "response": "Alpha"}, "75": {"stimulus": 14, "trial": 75, "rt": 1445, "response": "Beta"}, "38": {"stimulus": 8, "trial": 38, "rt": 1763, "response": "Beta"}, "73": {"stimulus": 39, "trial": 73, "rt": 1267, "response": "Beta"}, "72": {"stimulus": 18, "trial": 72, "rt": 1132, "response": "Beta"}, "71": {"stimulus": 40, "trial": 71, "rt": 956, "response": "Beta"}, "70": {"stimulus": 77, "trial": 70, "rt": 8768, "response": "Alpha"}, "59": {"stimulus": 72, "trial": 59, "rt": 18138, "response": "Alpha"}, "79": {"stimulus": 19, "trial": 79, "rt": 12952, "response": "Alpha"}, "58": {"stimulus": 50, "trial": 58, "rt": 3651, "response": "Beta"}, "11": {"stimulus": 33, "trial": 11, "rt": 1271, "response": "Beta"}, "10": {"stimulus": 55, "trial": 10, "rt": 3607, "response": "Beta"}, "13": {"stimulus": 71, "trial": 13, "rt": 1031, "response": "Alpha"}, "12": {"stimulus": 13, "trial": 12, "rt": 765, "response": "Beta"}, "15": {"stimulus": 24, "trial": 15, "rt": 596, "response": "Alpha"}, "14": {"stimulus": 38, "trial": 14, "rt": 843, "response": "Alpha"}, "17": {"stimulus": 20, "trial": 17, "rt": 676, "response": "Alpha"}, "16": {"stimulus": 12, "trial": 16, "rt": 650, "response": "Alpha"}, "19": {"stimulus": 16, "trial": 19, "rt": 953, "response": "Alpha"}, "18": {"stimulus": 42, "trial": 18, "rt": 1502, "response": "Beta"}, "31": {"stimulus": 7, "trial": 31, "rt": 1080, "response": "Beta"}, "30": {"stimulus": 43, "trial": 30, "rt": 993, "response": "Beta"}, "37": {"stimulus": 35, "trial": 37, "rt": 963, "response": "Beta"}, "36": {"stimulus": 70, "trial": 36, "rt": 860, "response": "Alpha"}, "35": {"stimulus": 46, "trial": 35, "rt": 993, "response": "Beta"}, "34": {"stimulus": 37, "trial": 34, "rt": 1485, "response": "Beta"}, "33": {"stimulus": 62, "trial": 33, "rt": 1165, "response": "Alpha"}, "55": {"stimulus": 36, "trial": 55, "rt": 1067, "response": "Beta"}, "74": {"stimulus": 63, "trial": 74, "rt": 7071, "response": "Alpha"}, "32": {"stimulus": 54, "trial": 32, "rt": 978, "response": "Alpha"}, "57": {"stimulus": 4, "trial": 57, "rt": 1183, "response": "Beta"}, "50": {"stimulus": 61, "trial": 50, "rt": 1363, "response": "Alpha"}}}