{"generation": {"1": {"stimulus": 62, "trial": 1, "rt": 16203}, "0": {"stimulus": 26, "trial": 0, "rt": 18210}, "3": {"stimulus": 61, "trial": 3, "rt": 12455}, "2": {"stimulus": 1, "trial": 2, "rt": 6462}}, "info": {"finish": 1488823049076, "participant": 149, "exposed": true, "lab": false, "start": 1488822607559, "counterbalance": 6, "condition": "XOR", "browser": {"platform": "MacIntel", "userAgent": "Mozilla/5.0 (Macintosh; Intel Mac OS X 10_11_6) AppleWebKit/537.36 (KHTML, like Gecko) Chrome/52.0.2743.116 Safari/537.36"}}, "experiment": {"Paradigm": "TACL", "Stimuli": "Size-Color Squares", "Experiment": "Generating-Categories"}, "observation": {"11": {"stimulus": 0, "trial": 11, "rt": 981}, "10": {"stimulus": 10, "trial": 10, "rt": 925}, "1": {"stimulus": 0, "trial": 1, "rt": 2519}, "0": {"stimulus": 70, "trial": 0, "rt": 3325}, "3": {"stimulus": 10, "trial": 3, "rt": 1118}, "2": {"stimulus": 80, "trial": 2, "rt": 1529}, "5": {"stimulus": 0, "trial": 5, "rt": 1090}, "4": {"stimulus": 80, "trial": 4, "rt": 1156}, "7": {"stimulus": 70, "trial": 7, "rt": 964}, "6": {"stimulus": 10, "trial": 6, "rt": 1049}, "9": {"stimulus": 70, "trial": 9, "rt": 879}, "8": {"stimulus": 80, "trial": 8, "rt": 908}}, "generalization": {"56": {"stimulus": 2, "trial": 56, "rt": 1418, "response": "Beta"}, "77": {"stimulus": 54, "trial": 77, "rt": 2065, "response": "Alpha"}, "54": {"stimulus": 47, "trial": 54, "rt": 1342, "response": "Beta"}, "42": {"stimulus": 11, "trial": 42, "rt": 3249, "response": "Alpha"}, "48": {"stimulus": 7, "trial": 48, "rt": 15496, "response": "Beta"}, "43": {"stimulus": 0, "trial": 43, "rt": 2648, "response": "Alpha"}, "60": {"stimulus": 56, "trial": 60, "rt": 5426, "response": "Beta"}, "61": {"stimulus": 44, "trial": 61, "rt": 5790, "response": "Beta"}, "62": {"stimulus": 52, "trial": 62, "rt": 1273, "response": "Beta"}, "63": {"stimulus": 48, "trial": 63, "rt": 1837, "response": "Alpha"}, "64": {"stimulus": 20, "trial": 64, "rt": 1573, "response": "Beta"}, "49": {"stimulus": 80, "trial": 49, "rt": 845, "response": "Beta"}, "66": {"stimulus": 6, "trial": 66, "rt": 29085, "response": "Beta"}, "67": {"stimulus": 1, "trial": 67, "rt": 7173, "response": "Beta"}, "68": {"stimulus": 67, "trial": 68, "rt": 3548, "response": "Alpha"}, "69": {"stimulus": 27, "trial": 69, "rt": 1258, "response": "Beta"}, "80": {"stimulus": 65, "trial": 80, "rt": 1127, "response": "Beta"}, "52": {"stimulus": 18, "trial": 52, "rt": 7195, "response": "Alpha"}, "53": {"stimulus": 50, "trial": 53, "rt": 7196, "response": "Alpha"}, "24": {"stimulus": 36, "trial": 24, "rt": 2166, "response": "Alpha"}, "25": {"stimulus": 66, "trial": 25, "rt": 5463, "response": "Beta"}, "26": {"stimulus": 14, "trial": 26, "rt": 2974, "response": "Beta"}, "27": {"stimulus": 71, "trial": 27, "rt": 4490, "response": "Beta"}, "20": {"stimulus": 17, "trial": 20, "rt": 950, "response": "Beta"}, "21": {"stimulus": 78, "trial": 21, "rt": 1199, "response": "Beta"}, "22": {"stimulus": 68, "trial": 22, "rt": 1236, "response": "Beta"}, "23": {"stimulus": 43, "trial": 23, "rt": 1031, "response": "Beta"}, "46": {"stimulus": 45, "trial": 46, "rt": 2326, "response": "Beta"}, "47": {"stimulus": 74, "trial": 47, "rt": 8625, "response": "Beta"}, "44": {"stimulus": 28, "trial": 44, "rt": 956, "response": "Alpha"}, "45": {"stimulus": 23, "trial": 45, "rt": 1471, "response": "Alpha"}, "28": {"stimulus": 69, "trial": 28, "rt": 879, "response": "Beta"}, "29": {"stimulus": 59, "trial": 29, "rt": 1037, "response": "Beta"}, "40": {"stimulus": 35, "trial": 40, "rt": 2284, "response": "Beta"}, "41": {"stimulus": 8, "trial": 41, "rt": 1749, "response": "Beta"}, "1": {"stimulus": 79, "trial": 1, "rt": 1830, "response": "Beta"}, "0": {"stimulus": 13, "trial": 0, "rt": 2750, "response": "Beta"}, "3": {"stimulus": 38, "trial": 3, "rt": 4786, "response": "Alpha"}, "2": {"stimulus": 72, "trial": 2, "rt": 1397, "response": "Alpha"}, "5": {"stimulus": 63, "trial": 5, "rt": 723, "response": "Alpha"}, "4": {"stimulus": 76, "trial": 4, "rt": 1102, "response": "Alpha"}, "7": {"stimulus": 60, "trial": 7, "rt": 1583, "response": "Beta"}, "6": {"stimulus": 41, "trial": 6, "rt": 1865, "response": "Alpha"}, "9": {"stimulus": 33, "trial": 9, "rt": 1281, "response": "Beta"}, "8": {"stimulus": 49, "trial": 8, "rt": 2364, "response": "Alpha"}, "78": {"stimulus": 57, "trial": 78, "rt": 1246, "response": "Alpha"}, "51": {"stimulus": 70, "trial": 51, "rt": 1776, "response": "Beta"}, "39": {"stimulus": 21, "trial": 39, "rt": 2474, "response": "Beta"}, "65": {"stimulus": 39, "trial": 65, "rt": 1920, "response": "Alpha"}, "76": {"stimulus": 34, "trial": 76, "rt": 703, "response": "Beta"}, "75": {"stimulus": 62, "trial": 75, "rt": 1146, "response": "Beta"}, "38": {"stimulus": 73, "trial": 38, "rt": 6291, "response": "Alpha"}, "73": {"stimulus": 46, "trial": 73, "rt": 1135, "response": "Beta"}, "72": {"stimulus": 19, "trial": 72, "rt": 39985, "response": "Beta"}, "71": {"stimulus": 16, "trial": 71, "rt": 5926, "response": "Beta"}, "70": {"stimulus": 77, "trial": 70, "rt": 1003, "response": "Beta"}, "59": {"stimulus": 30, "trial": 59, "rt": 3135, "response": "Beta"}, "79": {"stimulus": 58, "trial": 79, "rt": 1052, "response": "Alpha"}, "58": {"stimulus": 24, "trial": 58, "rt": 905, "response": "Beta"}, "11": {"stimulus": 40, "trial": 11, "rt": 3365, "response": "Alpha"}, "10": {"stimulus": 37, "trial": 10, "rt": 977, "response": "Alpha"}, "13": {"stimulus": 15, "trial": 13, "rt": 981, "response": "Beta"}, "12": {"stimulus": 75, "trial": 12, "rt": 1358, "response": "Beta"}, "15": {"stimulus": 12, "trial": 15, "rt": 2135, "response": "Alpha"}, "14": {"stimulus": 61, "trial": 14, "rt": 949, "response": "Beta"}, "17": {"stimulus": 55, "trial": 17, "rt": 3791, "response": "Alpha"}, "16": {"stimulus": 32, "trial": 16, "rt": 1220, "response": "Beta"}, "19": {"stimulus": 25, "trial": 19, "rt": 1166, "response": "Beta"}, "18": {"stimulus": 64, "trial": 18, "rt": 3714, "response": "Alpha"}, "31": {"stimulus": 4, "trial": 31, "rt": 1391, "response": "Alpha"}, "30": {"stimulus": 10, "trial": 30, "rt": 17968, "response": "Alpha"}, "37": {"stimulus": 5, "trial": 37, "rt": 1343, "response": "Beta"}, "36": {"stimulus": 3, "trial": 36, "rt": 1207, "response": "Alpha"}, "35": {"stimulus": 53, "trial": 35, "rt": 1283, "response": "Beta"}, "34": {"stimulus": 9, "trial": 34, "rt": 1176, "response": "Alpha"}, "33": {"stimulus": 22, "trial": 33, "rt": 2989, "response": "Beta"}, "55": {"stimulus": 42, "trial": 55, "rt": 1396, "response": "Alpha"}, "74": {"stimulus": 31, "trial": 74, "rt": 2901, "response": "Alpha"}, "32": {"stimulus": 29, "trial": 32, "rt": 4746, "response": "Beta"}, "57": {"stimulus": 51, "trial": 57, "rt": 1138, "response": "Beta"}, "50": {"stimulus": 26, "trial": 50, "rt": 851, "response": "Beta"}}}