{"generation": {"1": {"stimulus": 0, "trial": 1, "rt": 11588}, "0": {"stimulus": 72, "trial": 0, "rt": 13241}, "3": {"stimulus": 38, "trial": 3, "rt": 8419}, "2": {"stimulus": 73, "trial": 2, "rt": 20860}}, "info": {"finish": 1488822143088, "participant": 15, "exposed": true, "lab": false, "start": 1488821808884, "counterbalance": 7, "condition": "Cluster", "browser": {"platform": "Win32", "userAgent": "Mozilla/5.0 (Windows NT 10.0; WOW64; rv:51.0) Gecko/20100101 Firefox/51.0"}}, "experiment": {"Paradigm": "TACL", "Stimuli": "Size-Color Squares", "Experiment": "Generating-Categories"}, "observation": {"11": {"stimulus": 34, "trial": 11, "rt": 1089}, "10": {"stimulus": 16, "trial": 10, "rt": 691}, "1": {"stimulus": 14, "trial": 1, "rt": 1371}, "0": {"stimulus": 16, "trial": 0, "rt": 6807}, "3": {"stimulus": 34, "trial": 3, "rt": 1300}, "2": {"stimulus": 32, "trial": 2, "rt": 1276}, "5": {"stimulus": 16, "trial": 5, "rt": 1238}, "4": {"stimulus": 14, "trial": 4, "rt": 1761}, "7": {"stimulus": 32, "trial": 7, "rt": 950}, "6": {"stimulus": 34, "trial": 6, "rt": 990}, "9": {"stimulus": 14, "trial": 9, "rt": 1073}, "8": {"stimulus": 32, "trial": 8, "rt": 1090}}, "generalization": {"56": {"stimulus": 10, "trial": 56, "rt": 1327, "response": "Beta"}, "77": {"stimulus": 44, "trial": 77, "rt": 582, "response": "Alpha"}, "54": {"stimulus": 46, "trial": 54, "rt": 1382, "response": "Beta"}, "42": {"stimulus": 57, "trial": 42, "rt": 1709, "response": "Beta"}, "48": {"stimulus": 47, "trial": 48, "rt": 8073, "response": "Beta"}, "43": {"stimulus": 34, "trial": 43, "rt": 4334, "response": "Alpha"}, "60": {"stimulus": 79, "trial": 60, "rt": 1152, "response": "Alpha"}, "61": {"stimulus": 64, "trial": 61, "rt": 960, "response": "Beta"}, "62": {"stimulus": 30, "trial": 62, "rt": 771, "response": "Beta"}, "63": {"stimulus": 48, "trial": 63, "rt": 1077, "response": "Beta"}, "64": {"stimulus": 20, "trial": 64, "rt": 928, "response": "Beta"}, "49": {"stimulus": 12, "trial": 49, "rt": 1788, "response": "Beta"}, "66": {"stimulus": 70, "trial": 66, "rt": 1238, "response": "Alpha"}, "67": {"stimulus": 6, "trial": 67, "rt": 2310, "response": "Alpha"}, "68": {"stimulus": 4, "trial": 68, "rt": 3559, "response": "Beta"}, "69": {"stimulus": 66, "trial": 69, "rt": 1259, "response": "Beta"}, "80": {"stimulus": 68, "trial": 80, "rt": 1226, "response": "Alpha"}, "52": {"stimulus": 73, "trial": 52, "rt": 1510, "response": "Beta"}, "53": {"stimulus": 22, "trial": 53, "rt": 1044, "response": "Alpha"}, "24": {"stimulus": 56, "trial": 24, "rt": 1054, "response": "Beta"}, "25": {"stimulus": 1, "trial": 25, "rt": 814, "response": "Beta"}, "26": {"stimulus": 28, "trial": 26, "rt": 691, "response": "Beta"}, "27": {"stimulus": 72, "trial": 27, "rt": 748, "response": "Beta"}, "20": {"stimulus": 63, "trial": 20, "rt": 909, "response": "Beta"}, "21": {"stimulus": 42, "trial": 21, "rt": 1064, "response": "Alpha"}, "22": {"stimulus": 80, "trial": 22, "rt": 742, "response": "Alpha"}, "23": {"stimulus": 41, "trial": 23, "rt": 1302, "response": "Alpha"}, "46": {"stimulus": 0, "trial": 46, "rt": 678, "response": "Beta"}, "47": {"stimulus": 62, "trial": 47, "rt": 1017, "response": "Alpha"}, "44": {"stimulus": 8, "trial": 44, "rt": 903, "response": "Alpha"}, "45": {"stimulus": 36, "trial": 45, "rt": 1415, "response": "Beta"}, "28": {"stimulus": 69, "trial": 28, "rt": 1512, "response": "Alpha"}, "29": {"stimulus": 39, "trial": 29, "rt": 882, "response": "Beta"}, "40": {"stimulus": 77, "trial": 40, "rt": 1274, "response": "Alpha"}, "41": {"stimulus": 50, "trial": 41, "rt": 2766, "response": "Alpha"}, "1": {"stimulus": 75, "trial": 1, "rt": 2466, "response": "Beta"}, "0": {"stimulus": 15, "trial": 0, "rt": 4279, "response": "Alpha"}, "3": {"stimulus": 37, "trial": 3, "rt": 1072, "response": "Beta"}, "2": {"stimulus": 51, "trial": 2, "rt": 858, "response": "Alpha"}, "5": {"stimulus": 65, "trial": 5, "rt": 1027, "response": "Beta"}, "4": {"stimulus": 16, "trial": 4, "rt": 1045, "response": "Alpha"}, "7": {"stimulus": 14, "trial": 7, "rt": 1708, "response": "Alpha"}, "6": {"stimulus": 61, "trial": 6, "rt": 922, "response": "Alpha"}, "9": {"stimulus": 2, "trial": 9, "rt": 2338, "response": "Beta"}, "8": {"stimulus": 78, "trial": 8, "rt": 2625, "response": "Alpha"}, "78": {"stimulus": 35, "trial": 78, "rt": 2443, "response": "Alpha"}, "51": {"stimulus": 43, "trial": 51, "rt": 1389, "response": "Alpha"}, "39": {"stimulus": 9, "trial": 39, "rt": 1353, "response": "Beta"}, "65": {"stimulus": 19, "trial": 65, "rt": 605, "response": "Beta"}, "76": {"stimulus": 26, "trial": 76, "rt": 1282, "response": "Alpha"}, "75": {"stimulus": 21, "trial": 75, "rt": 7546, "response": "Beta"}, "38": {"stimulus": 53, "trial": 38, "rt": 2000, "response": "Alpha"}, "73": {"stimulus": 29, "trial": 73, "rt": 1040, "response": "Beta"}, "72": {"stimulus": 17, "trial": 72, "rt": 2171, "response": "Alpha"}, "71": {"stimulus": 18, "trial": 71, "rt": 1126, "response": "Beta"}, "70": {"stimulus": 27, "trial": 70, "rt": 1912, "response": "Beta"}, "59": {"stimulus": 55, "trial": 59, "rt": 724, "response": "Beta"}, "79": {"stimulus": 25, "trial": 79, "rt": 3564, "response": "Alpha"}, "58": {"stimulus": 49, "trial": 58, "rt": 562, "response": "Alpha"}, "11": {"stimulus": 7, "trial": 11, "rt": 1464, "response": "Alpha"}, "10": {"stimulus": 45, "trial": 10, "rt": 3202, "response": "Beta"}, "13": {"stimulus": 32, "trial": 13, "rt": 1650, "response": "Alpha"}, "12": {"stimulus": 33, "trial": 12, "rt": 926, "response": "Alpha"}, "15": {"stimulus": 38, "trial": 15, "rt": 189, "response": "Beta"}, "14": {"stimulus": 54, "trial": 14, "rt": 828, "response": "Alpha"}, "17": {"stimulus": 31, "trial": 17, "rt": 896, "response": "Beta"}, "16": {"stimulus": 3, "trial": 16, "rt": 828, "response": "Alpha"}, "19": {"stimulus": 13, "trial": 19, "rt": 646, "response": "Alpha"}, "18": {"stimulus": 76, "trial": 18, "rt": 1417, "response": "Beta"}, "31": {"stimulus": 52, "trial": 31, "rt": 1290, "response": "Alpha"}, "30": {"stimulus": 60, "trial": 30, "rt": 556, "response": "Alpha"}, "37": {"stimulus": 74, "trial": 37, "rt": 1006, "response": "Beta"}, "36": {"stimulus": 40, "trial": 36, "rt": 1414, "response": "Beta"}, "35": {"stimulus": 59, "trial": 35, "rt": 930, "response": "Beta"}, "34": {"stimulus": 5, "trial": 34, "rt": 1037, "response": "Beta"}, "33": {"stimulus": 67, "trial": 33, "rt": 2645, "response": "Beta"}, "55": {"stimulus": 11, "trial": 55, "rt": 529, "response": "Beta"}, "74": {"stimulus": 71, "trial": 74, "rt": 4322, "response": "Alpha"}, "32": {"stimulus": 23, "trial": 32, "rt": 878, "response": "Alpha"}, "57": {"stimulus": 24, "trial": 57, "rt": 1159, "response": "Alpha"}, "50": {"stimulus": 58, "trial": 50, "rt": 2595, "response": "Beta"}}}