{"generation": {"1": {"stimulus": 72, "trial": 1, "rt": 12548}, "0": {"stimulus": 36, "trial": 0, "rt": 18163}, "3": {"stimulus": 63, "trial": 3, "rt": 11649}, "2": {"stimulus": 1, "trial": 2, "rt": 9369}}, "info": {"finish": 1488822717509, "participant": 152, "exposed": true, "lab": false, "start": 1488822493106, "counterbalance": 5, "condition": "Cluster", "browser": {"platform": "Win32", "userAgent": "Mozilla/5.0 (Windows NT 10.0; WOW64) AppleWebKit/537.36 (KHTML, like Gecko) Chrome/56.0.2924.87 Safari/537.36"}}, "experiment": {"Paradigm": "TACL", "Stimuli": "Size-Color Squares", "Experiment": "Generating-Categories"}, "observation": {"11": {"stimulus": 34, "trial": 11, "rt": 958}, "10": {"stimulus": 16, "trial": 10, "rt": 946}, "1": {"stimulus": 14, "trial": 1, "rt": 2092}, "0": {"stimulus": 16, "trial": 0, "rt": 2304}, "3": {"stimulus": 32, "trial": 3, "rt": 2497}, "2": {"stimulus": 34, "trial": 2, "rt": 2740}, "5": {"stimulus": 32, "trial": 5, "rt": 1083}, "4": {"stimulus": 14, "trial": 4, "rt": 1308}, "7": {"stimulus": 16, "trial": 7, "rt": 1253}, "6": {"stimulus": 34, "trial": 6, "rt": 1111}, "9": {"stimulus": 32, "trial": 9, "rt": 1045}, "8": {"stimulus": 14, "trial": 8, "rt": 1070}}, "generalization": {"56": {"stimulus": 65, "trial": 56, "rt": 896, "response": "Beta"}, "77": {"stimulus": 26, "trial": 77, "rt": 591, "response": "Alpha"}, "54": {"stimulus": 58, "trial": 54, "rt": 734, "response": "Alpha"}, "42": {"stimulus": 73, "trial": 42, "rt": 875, "response": "Beta"}, "48": {"stimulus": 45, "trial": 48, "rt": 976, "response": "Beta"}, "43": {"stimulus": 41, "trial": 43, "rt": 648, "response": "Alpha"}, "60": {"stimulus": 2, "trial": 60, "rt": 1089, "response": "Beta"}, "61": {"stimulus": 27, "trial": 61, "rt": 798, "response": "Beta"}, "62": {"stimulus": 66, "trial": 62, "rt": 1508, "response": "Beta"}, "63": {"stimulus": 46, "trial": 63, "rt": 1114, "response": "Beta"}, "64": {"stimulus": 52, "trial": 64, "rt": 562, "response": "Beta"}, "49": {"stimulus": 69, "trial": 49, "rt": 1025, "response": "Alpha"}, "66": {"stimulus": 8, "trial": 66, "rt": 534, "response": "Alpha"}, "67": {"stimulus": 75, "trial": 67, "rt": 2311, "response": "Beta"}, "68": {"stimulus": 3, "trial": 68, "rt": 1891, "response": "Beta"}, "69": {"stimulus": 10, "trial": 69, "rt": 962, "response": "Beta"}, "80": {"stimulus": 17, "trial": 80, "rt": 577, "response": "Alpha"}, "52": {"stimulus": 79, "trial": 52, "rt": 515, "response": "Alpha"}, "53": {"stimulus": 23, "trial": 53, "rt": 545, "response": "Alpha"}, "24": {"stimulus": 16, "trial": 24, "rt": 1086, "response": "Alpha"}, "25": {"stimulus": 55, "trial": 25, "rt": 898, "response": "Beta"}, "26": {"stimulus": 53, "trial": 26, "rt": 1076, "response": "Alpha"}, "27": {"stimulus": 36, "trial": 27, "rt": 908, "response": "Beta"}, "20": {"stimulus": 44, "trial": 20, "rt": 648, "response": "Alpha"}, "21": {"stimulus": 4, "trial": 21, "rt": 1405, "response": "Alpha"}, "22": {"stimulus": 49, "trial": 22, "rt": 704, "response": "Alpha"}, "23": {"stimulus": 1, "trial": 23, "rt": 874, "response": "Beta"}, "46": {"stimulus": 74, "trial": 46, "rt": 1029, "response": "Beta"}, "47": {"stimulus": 62, "trial": 47, "rt": 608, "response": "Alpha"}, "44": {"stimulus": 37, "trial": 44, "rt": 826, "response": "Beta"}, "45": {"stimulus": 42, "trial": 45, "rt": 756, "response": "Alpha"}, "28": {"stimulus": 24, "trial": 28, "rt": 1401, "response": "Alpha"}, "29": {"stimulus": 22, "trial": 29, "rt": 1710, "response": "Alpha"}, "40": {"stimulus": 77, "trial": 40, "rt": 562, "response": "Alpha"}, "41": {"stimulus": 12, "trial": 41, "rt": 976, "response": "Beta"}, "1": {"stimulus": 34, "trial": 1, "rt": 1075, "response": "Alpha"}, "0": {"stimulus": 71, "trial": 0, "rt": 1346, "response": "Alpha"}, "3": {"stimulus": 78, "trial": 3, "rt": 1145, "response": "Alpha"}, "2": {"stimulus": 14, "trial": 2, "rt": 1057, "response": "Alpha"}, "5": {"stimulus": 59, "trial": 5, "rt": 1048, "response": "Alpha"}, "4": {"stimulus": 0, "trial": 4, "rt": 1330, "response": "Beta"}, "7": {"stimulus": 13, "trial": 7, "rt": 888, "response": "Alpha"}, "6": {"stimulus": 32, "trial": 6, "rt": 1109, "response": "Alpha"}, "9": {"stimulus": 7, "trial": 9, "rt": 611, "response": "Alpha"}, "8": {"stimulus": 80, "trial": 8, "rt": 657, "response": "Alpha"}, "78": {"stimulus": 63, "trial": 78, "rt": 1009, "response": "Beta"}, "51": {"stimulus": 61, "trial": 51, "rt": 418, "response": "Alpha"}, "39": {"stimulus": 67, "trial": 39, "rt": 1175, "response": "Alpha"}, "65": {"stimulus": 5, "trial": 65, "rt": 862, "response": "Alpha"}, "76": {"stimulus": 35, "trial": 76, "rt": 649, "response": "Alpha"}, "75": {"stimulus": 30, "trial": 75, "rt": 638, "response": "Alpha"}, "38": {"stimulus": 20, "trial": 38, "rt": 924, "response": "Alpha"}, "73": {"stimulus": 25, "trial": 73, "rt": 587, "response": "Alpha"}, "72": {"stimulus": 68, "trial": 72, "rt": 907, "response": "Alpha"}, "71": {"stimulus": 54, "trial": 71, "rt": 671, "response": "Beta"}, "70": {"stimulus": 29, "trial": 70, "rt": 958, "response": "Beta"}, "59": {"stimulus": 60, "trial": 59, "rt": 808, "response": "Alpha"}, "79": {"stimulus": 31, "trial": 79, "rt": 1100, "response": "Alpha"}, "58": {"stimulus": 40, "trial": 58, "rt": 1591, "response": "Alpha"}, "11": {"stimulus": 43, "trial": 11, "rt": 625, "response": "Alpha"}, "10": {"stimulus": 39, "trial": 10, "rt": 1230, "response": "Alpha"}, "13": {"stimulus": 76, "trial": 13, "rt": 1121, "response": "Alpha"}, "12": {"stimulus": 9, "trial": 12, "rt": 957, "response": "Beta"}, "15": {"stimulus": 19, "trial": 15, "rt": 1090, "response": "Beta"}, "14": {"stimulus": 15, "trial": 14, "rt": 1497, "response": "Alpha"}, "17": {"stimulus": 51, "trial": 17, "rt": 1221, "response": "Alpha"}, "16": {"stimulus": 64, "trial": 16, "rt": 1308, "response": "Beta"}, "19": {"stimulus": 70, "trial": 19, "rt": 1007, "response": "Alpha"}, "18": {"stimulus": 11, "trial": 18, "rt": 1132, "response": "Beta"}, "31": {"stimulus": 50, "trial": 31, "rt": 507, "response": "Alpha"}, "30": {"stimulus": 33, "trial": 30, "rt": 928, "response": "Alpha"}, "37": {"stimulus": 21, "trial": 37, "rt": 527, "response": "Alpha"}, "36": {"stimulus": 56, "trial": 36, "rt": 1222, "response": "Beta"}, "35": {"stimulus": 47, "trial": 35, "rt": 1889, "response": "Alpha"}, "34": {"stimulus": 57, "trial": 34, "rt": 1092, "response": "Alpha"}, "33": {"stimulus": 6, "trial": 33, "rt": 511, "response": "Alpha"}, "55": {"stimulus": 18, "trial": 55, "rt": 879, "response": "Beta"}, "74": {"stimulus": 48, "trial": 74, "rt": 876, "response": "Alpha"}, "32": {"stimulus": 28, "trial": 32, "rt": 856, "response": "Beta"}, "57": {"stimulus": 72, "trial": 57, "rt": 765, "response": "Beta"}, "50": {"stimulus": 38, "trial": 50, "rt": 885, "response": "Beta"}}}