{"generation": {"1": {"stimulus": 74, "trial": 1, "rt": 29610}, "0": {"stimulus": 56, "trial": 0, "rt": 40327}, "3": {"stimulus": 73, "trial": 3, "rt": 20970}, "2": {"stimulus": 77, "trial": 2, "rt": 18703}}, "info": {"finish": 1488822920903, "participant": 153, "exposed": true, "lab": false, "start": 1488822501921, "counterbalance": 5, "condition": "Row", "browser": {"platform": "Win32", "userAgent": "Mozilla/5.0 (Windows NT 5.1) AppleWebKit/537.36 (KHTML, like Gecko) Chrome/49.0.2623.112 Safari/537.36"}}, "experiment": {"Paradigm": "TACL", "Stimuli": "Size-Color Squares", "Experiment": "Generating-Categories"}, "observation": {"11": {"stimulus": 14, "trial": 11, "rt": 5507}, "10": {"stimulus": 12, "trial": 10, "rt": 1683}, "1": {"stimulus": 12, "trial": 1, "rt": 10200}, "0": {"stimulus": 10, "trial": 0, "rt": 11285}, "3": {"stimulus": 16, "trial": 3, "rt": 2700}, "2": {"stimulus": 14, "trial": 2, "rt": 3871}, "5": {"stimulus": 16, "trial": 5, "rt": 1543}, "4": {"stimulus": 12, "trial": 4, "rt": 1917}, "7": {"stimulus": 10, "trial": 7, "rt": 1872}, "6": {"stimulus": 14, "trial": 6, "rt": 1185}, "9": {"stimulus": 16, "trial": 9, "rt": 1576}, "8": {"stimulus": 10, "trial": 8, "rt": 1410}}, "generalization": {"56": {"stimulus": 54, "trial": 56, "rt": 1638, "response": "Beta"}, "77": {"stimulus": 33, "trial": 77, "rt": 1699, "response": "Alpha"}, "54": {"stimulus": 19, "trial": 54, "rt": 1121, "response": "Alpha"}, "42": {"stimulus": 0, "trial": 42, "rt": 1586, "response": "Alpha"}, "48": {"stimulus": 40, "trial": 48, "rt": 2775, "response": "Alpha"}, "43": {"stimulus": 23, "trial": 43, "rt": 3253, "response": "Alpha"}, "60": {"stimulus": 3, "trial": 60, "rt": 1673, "response": "Alpha"}, "61": {"stimulus": 2, "trial": 61, "rt": 1375, "response": "Alpha"}, "62": {"stimulus": 5, "trial": 62, "rt": 1084, "response": "Alpha"}, "63": {"stimulus": 17, "trial": 63, "rt": 1083, "response": "Alpha"}, "64": {"stimulus": 30, "trial": 64, "rt": 1391, "response": "Alpha"}, "49": {"stimulus": 12, "trial": 49, "rt": 1231, "response": "Alpha"}, "66": {"stimulus": 72, "trial": 66, "rt": 1171, "response": "Beta"}, "67": {"stimulus": 62, "trial": 67, "rt": 1174, "response": "Beta"}, "68": {"stimulus": 16, "trial": 68, "rt": 1474, "response": "Alpha"}, "69": {"stimulus": 71, "trial": 69, "rt": 1567, "response": "Beta"}, "80": {"stimulus": 8, "trial": 80, "rt": 1000, "response": "Alpha"}, "52": {"stimulus": 64, "trial": 52, "rt": 1489, "response": "Beta"}, "53": {"stimulus": 15, "trial": 53, "rt": 1386, "response": "Alpha"}, "24": {"stimulus": 59, "trial": 24, "rt": 1493, "response": "Beta"}, "25": {"stimulus": 66, "trial": 25, "rt": 2088, "response": "Beta"}, "26": {"stimulus": 47, "trial": 26, "rt": 2332, "response": "Alpha"}, "27": {"stimulus": 49, "trial": 27, "rt": 3582, "response": "Beta"}, "20": {"stimulus": 4, "trial": 20, "rt": 1558, "response": "Alpha"}, "21": {"stimulus": 37, "trial": 21, "rt": 2051, "response": "Alpha"}, "22": {"stimulus": 67, "trial": 22, "rt": 1668, "response": "Beta"}, "23": {"stimulus": 27, "trial": 23, "rt": 1451, "response": "Alpha"}, "46": {"stimulus": 53, "trial": 46, "rt": 1709, "response": "Beta"}, "47": {"stimulus": 61, "trial": 47, "rt": 945, "response": "Beta"}, "44": {"stimulus": 76, "trial": 44, "rt": 1459, "response": "Beta"}, "45": {"stimulus": 10, "trial": 45, "rt": 1439, "response": "Alpha"}, "28": {"stimulus": 11, "trial": 28, "rt": 1648, "response": "Alpha"}, "29": {"stimulus": 14, "trial": 29, "rt": 1605, "response": "Alpha"}, "40": {"stimulus": 29, "trial": 40, "rt": 2262, "response": "Beta"}, "41": {"stimulus": 51, "trial": 41, "rt": 1212, "response": "Beta"}, "1": {"stimulus": 38, "trial": 1, "rt": 1558, "response": "Alpha"}, "0": {"stimulus": 34, "trial": 0, "rt": 2944, "response": "Alpha"}, "3": {"stimulus": 48, "trial": 3, "rt": 2700, "response": "Beta"}, "2": {"stimulus": 22, "trial": 2, "rt": 1582, "response": "Alpha"}, "5": {"stimulus": 50, "trial": 5, "rt": 2877, "response": "Alpha"}, "4": {"stimulus": 74, "trial": 4, "rt": 1379, "response": "Beta"}, "7": {"stimulus": 36, "trial": 7, "rt": 1538, "response": "Alpha"}, "6": {"stimulus": 73, "trial": 6, "rt": 1398, "response": "Beta"}, "9": {"stimulus": 26, "trial": 9, "rt": 1725, "response": "Alpha"}, "8": {"stimulus": 65, "trial": 8, "rt": 1473, "response": "Beta"}, "78": {"stimulus": 39, "trial": 78, "rt": 937, "response": "Alpha"}, "51": {"stimulus": 20, "trial": 51, "rt": 1564, "response": "Alpha"}, "39": {"stimulus": 70, "trial": 39, "rt": 1712, "response": "Beta"}, "65": {"stimulus": 79, "trial": 65, "rt": 1373, "response": "Beta"}, "76": {"stimulus": 46, "trial": 76, "rt": 1125, "response": "Beta"}, "75": {"stimulus": 44, "trial": 75, "rt": 1511, "response": "Beta"}, "38": {"stimulus": 7, "trial": 38, "rt": 1535, "response": "Alpha"}, "73": {"stimulus": 43, "trial": 73, "rt": 2464, "response": "Alpha"}, "72": {"stimulus": 63, "trial": 72, "rt": 1476, "response": "Beta"}, "71": {"stimulus": 35, "trial": 71, "rt": 1185, "response": "Alpha"}, "70": {"stimulus": 32, "trial": 70, "rt": 2519, "response": "Alpha"}, "59": {"stimulus": 80, "trial": 59, "rt": 1412, "response": "Beta"}, "79": {"stimulus": 28, "trial": 79, "rt": 873, "response": "Alpha"}, "58": {"stimulus": 56, "trial": 58, "rt": 1647, "response": "Beta"}, "11": {"stimulus": 78, "trial": 11, "rt": 1762, "response": "Beta"}, "10": {"stimulus": 6, "trial": 10, "rt": 1723, "response": "Alpha"}, "13": {"stimulus": 75, "trial": 13, "rt": 2024, "response": "Beta"}, "12": {"stimulus": 25, "trial": 12, "rt": 3015, "response": "Alpha"}, "15": {"stimulus": 21, "trial": 15, "rt": 2313, "response": "Alpha"}, "14": {"stimulus": 68, "trial": 14, "rt": 811, "response": "Beta"}, "17": {"stimulus": 9, "trial": 17, "rt": 2144, "response": "Alpha"}, "16": {"stimulus": 45, "trial": 16, "rt": 4282, "response": "Beta"}, "19": {"stimulus": 77, "trial": 19, "rt": 1482, "response": "Beta"}, "18": {"stimulus": 58, "trial": 18, "rt": 1571, "response": "Beta"}, "31": {"stimulus": 52, "trial": 31, "rt": 2208, "response": "Beta"}, "30": {"stimulus": 1, "trial": 30, "rt": 1307, "response": "Alpha"}, "37": {"stimulus": 41, "trial": 37, "rt": 2074, "response": "Alpha"}, "36": {"stimulus": 60, "trial": 36, "rt": 1623, "response": "Beta"}, "35": {"stimulus": 18, "trial": 35, "rt": 1438, "response": "Alpha"}, "34": {"stimulus": 55, "trial": 34, "rt": 1320, "response": "Beta"}, "33": {"stimulus": 13, "trial": 33, "rt": 1416, "response": "Alpha"}, "55": {"stimulus": 31, "trial": 55, "rt": 1199, "response": "Alpha"}, "74": {"stimulus": 57, "trial": 74, "rt": 1560, "response": "Beta"}, "32": {"stimulus": 69, "trial": 32, "rt": 948, "response": "Beta"}, "57": {"stimulus": 42, "trial": 57, "rt": 2850, "response": "Alpha"}, "50": {"stimulus": 24, "trial": 50, "rt": 1590, "response": "Alpha"}}}