{"generation": {"1": {"stimulus": 46, "trial": 1, "rt": 2601}, "0": {"stimulus": 1, "trial": 0, "rt": 7979}, "3": {"stimulus": 28, "trial": 3, "rt": 3725}, "2": {"stimulus": 37, "trial": 2, "rt": 3610}}, "info": {"finish": 1488822692386, "participant": 154, "exposed": true, "lab": false, "start": 1488822496102, "counterbalance": 5, "condition": "Cluster", "browser": {"platform": "Win32", "userAgent": "Mozilla/5.0 (Windows NT 10.0; WOW64) AppleWebKit/537.36 (KHTML, like Gecko) Chrome/56.0.2924.87 Safari/537.36"}}, "experiment": {"Paradigm": "TACL", "Stimuli": "Size-Color Squares", "Experiment": "Generating-Categories"}, "observation": {"11": {"stimulus": 34, "trial": 11, "rt": 5356}, "10": {"stimulus": 32, "trial": 10, "rt": 1101}, "1": {"stimulus": 14, "trial": 1, "rt": 1155}, "0": {"stimulus": 32, "trial": 0, "rt": 3470}, "3": {"stimulus": 16, "trial": 3, "rt": 995}, "2": {"stimulus": 34, "trial": 2, "rt": 1066}, "5": {"stimulus": 14, "trial": 5, "rt": 2129}, "4": {"stimulus": 16, "trial": 4, "rt": 912}, "7": {"stimulus": 34, "trial": 7, "rt": 1095}, "6": {"stimulus": 32, "trial": 6, "rt": 635}, "9": {"stimulus": 16, "trial": 9, "rt": 1078}, "8": {"stimulus": 14, "trial": 8, "rt": 1145}}, "generalization": {"56": {"stimulus": 35, "trial": 56, "rt": 683, "response": "Alpha"}, "77": {"stimulus": 51, "trial": 77, "rt": 658, "response": "Alpha"}, "54": {"stimulus": 48, "trial": 54, "rt": 2117, "response": "Beta"}, "42": {"stimulus": 39, "trial": 42, "rt": 920, "response": "Alpha"}, "48": {"stimulus": 19, "trial": 48, "rt": 646, "response": "Beta"}, "43": {"stimulus": 25, "trial": 43, "rt": 542, "response": "Alpha"}, "60": {"stimulus": 12, "trial": 60, "rt": 825, "response": "Beta"}, "61": {"stimulus": 11, "trial": 61, "rt": 1997, "response": "Beta"}, "62": {"stimulus": 55, "trial": 62, "rt": 1159, "response": "Beta"}, "63": {"stimulus": 18, "trial": 63, "rt": 1619, "response": "Beta"}, "64": {"stimulus": 62, "trial": 64, "rt": 704, "response": "Alpha"}, "49": {"stimulus": 28, "trial": 49, "rt": 642, "response": "Beta"}, "66": {"stimulus": 44, "trial": 66, "rt": 652, "response": "Alpha"}, "67": {"stimulus": 74, "trial": 67, "rt": 1224, "response": "Beta"}, "68": {"stimulus": 34, "trial": 68, "rt": 1221, "response": "Alpha"}, "69": {"stimulus": 47, "trial": 69, "rt": 1111, "response": "Beta"}, "80": {"stimulus": 31, "trial": 80, "rt": 1388, "response": "Alpha"}, "52": {"stimulus": 59, "trial": 52, "rt": 774, "response": "Alpha"}, "53": {"stimulus": 57, "trial": 53, "rt": 1468, "response": "Alpha"}, "24": {"stimulus": 5, "trial": 24, "rt": 614, "response": "Alpha"}, "25": {"stimulus": 58, "trial": 25, "rt": 625, "response": "Alpha"}, "26": {"stimulus": 23, "trial": 26, "rt": 791, "response": "Alpha"}, "27": {"stimulus": 76, "trial": 27, "rt": 689, "response": "Alpha"}, "20": {"stimulus": 45, "trial": 20, "rt": 653, "response": "Beta"}, "21": {"stimulus": 61, "trial": 21, "rt": 649, "response": "Alpha"}, "22": {"stimulus": 46, "trial": 22, "rt": 995, "response": "Beta"}, "23": {"stimulus": 77, "trial": 23, "rt": 827, "response": "Alpha"}, "46": {"stimulus": 50, "trial": 46, "rt": 931, "response": "Alpha"}, "47": {"stimulus": 63, "trial": 47, "rt": 953, "response": "Beta"}, "44": {"stimulus": 75, "trial": 44, "rt": 8337, "response": "Beta"}, "45": {"stimulus": 69, "trial": 45, "rt": 829, "response": "Alpha"}, "28": {"stimulus": 17, "trial": 28, "rt": 1023, "response": "Alpha"}, "29": {"stimulus": 53, "trial": 29, "rt": 624, "response": "Alpha"}, "40": {"stimulus": 14, "trial": 40, "rt": 870, "response": "Alpha"}, "41": {"stimulus": 43, "trial": 41, "rt": 1042, "response": "Alpha"}, "1": {"stimulus": 56, "trial": 1, "rt": 764, "response": "Beta"}, "0": {"stimulus": 54, "trial": 0, "rt": 2822, "response": "Beta"}, "3": {"stimulus": 4, "trial": 3, "rt": 828, "response": "Alpha"}, "2": {"stimulus": 72, "trial": 2, "rt": 745, "response": "Beta"}, "5": {"stimulus": 29, "trial": 5, "rt": 1223, "response": "Beta"}, "4": {"stimulus": 8, "trial": 4, "rt": 800, "response": "Alpha"}, "7": {"stimulus": 41, "trial": 7, "rt": 576, "response": "Alpha"}, "6": {"stimulus": 33, "trial": 6, "rt": 762, "response": "Alpha"}, "9": {"stimulus": 22, "trial": 9, "rt": 718, "response": "Alpha"}, "8": {"stimulus": 60, "trial": 8, "rt": 548, "response": "Alpha"}, "78": {"stimulus": 1, "trial": 78, "rt": 919, "response": "Beta"}, "51": {"stimulus": 79, "trial": 51, "rt": 2819, "response": "Alpha"}, "39": {"stimulus": 27, "trial": 39, "rt": 1102, "response": "Beta"}, "65": {"stimulus": 80, "trial": 65, "rt": 687, "response": "Alpha"}, "76": {"stimulus": 10, "trial": 76, "rt": 844, "response": "Beta"}, "75": {"stimulus": 13, "trial": 75, "rt": 1233, "response": "Beta"}, "38": {"stimulus": 37, "trial": 38, "rt": 1346, "response": "Beta"}, "73": {"stimulus": 26, "trial": 73, "rt": 751, "response": "Alpha"}, "72": {"stimulus": 65, "trial": 72, "rt": 1666, "response": "Beta"}, "71": {"stimulus": 16, "trial": 71, "rt": 716, "response": "Alpha"}, "70": {"stimulus": 15, "trial": 70, "rt": 817, "response": "Alpha"}, "59": {"stimulus": 0, "trial": 59, "rt": 756, "response": "Beta"}, "79": {"stimulus": 70, "trial": 79, "rt": 558, "response": "Alpha"}, "58": {"stimulus": 21, "trial": 58, "rt": 879, "response": "Beta"}, "11": {"stimulus": 32, "trial": 11, "rt": 744, "response": "Alpha"}, "10": {"stimulus": 7, "trial": 10, "rt": 939, "response": "Alpha"}, "13": {"stimulus": 24, "trial": 13, "rt": 1060, "response": "Alpha"}, "12": {"stimulus": 67, "trial": 12, "rt": 930, "response": "Alpha"}, "15": {"stimulus": 9, "trial": 15, "rt": 861, "response": "Beta"}, "14": {"stimulus": 71, "trial": 14, "rt": 1112, "response": "Alpha"}, "17": {"stimulus": 20, "trial": 17, "rt": 821, "response": "Beta"}, "16": {"stimulus": 68, "trial": 16, "rt": 1194, "response": "Alpha"}, "19": {"stimulus": 36, "trial": 19, "rt": 704, "response": "Beta"}, "18": {"stimulus": 2, "trial": 18, "rt": 609, "response": "Beta"}, "31": {"stimulus": 78, "trial": 31, "rt": 677, "response": "Alpha"}, "30": {"stimulus": 6, "trial": 30, "rt": 605, "response": "Alpha"}, "37": {"stimulus": 40, "trial": 37, "rt": 1370, "response": "Alpha"}, "36": {"stimulus": 49, "trial": 36, "rt": 831, "response": "Beta"}, "35": {"stimulus": 64, "trial": 35, "rt": 675, "response": "Beta"}, "34": {"stimulus": 3, "trial": 34, "rt": 754, "response": "Beta"}, "33": {"stimulus": 52, "trial": 33, "rt": 954, "response": "Alpha"}, "55": {"stimulus": 73, "trial": 55, "rt": 866, "response": "Beta"}, "74": {"stimulus": 30, "trial": 74, "rt": 1361, "response": "Beta"}, "32": {"stimulus": 66, "trial": 32, "rt": 794, "response": "Alpha"}, "57": {"stimulus": 38, "trial": 57, "rt": 1242, "response": "Beta"}, "50": {"stimulus": 42, "trial": 50, "rt": 1015, "response": "Alpha"}}}