{"generation": {"1": {"stimulus": 3, "trial": 1, "rt": 6865}, "0": {"stimulus": 72, "trial": 0, "rt": 16947}, "3": {"stimulus": 8, "trial": 3, "rt": 4160}, "2": {"stimulus": 56, "trial": 2, "rt": 5213}}, "info": {"finish": 1488822762627, "participant": 155, "exposed": true, "lab": false, "start": 1488822503250, "counterbalance": 1, "condition": "XOR", "browser": {"platform": "Linux armv7l", "userAgent": "Mozilla/5.0 (X11; CrOS armv7l 9202.43.0) AppleWebKit/537.36 (KHTML, like Gecko) Chrome/57.0.2987.85 Safari/537.36"}}, "experiment": {"Paradigm": "TACL", "Stimuli": "Size-Color Squares", "Experiment": "Generating-Categories"}, "observation": {"11": {"stimulus": 70, "trial": 11, "rt": 1064}, "10": {"stimulus": 80, "trial": 10, "rt": 1113}, "1": {"stimulus": 70, "trial": 1, "rt": 46714}, "0": {"stimulus": 0, "trial": 0, "rt": 1901}, "3": {"stimulus": 10, "trial": 3, "rt": 1122}, "2": {"stimulus": 80, "trial": 2, "rt": 1069}, "5": {"stimulus": 0, "trial": 5, "rt": 1276}, "4": {"stimulus": 10, "trial": 4, "rt": 1509}, "7": {"stimulus": 70, "trial": 7, "rt": 1633}, "6": {"stimulus": 80, "trial": 6, "rt": 1067}, "9": {"stimulus": 0, "trial": 9, "rt": 1275}, "8": {"stimulus": 10, "trial": 8, "rt": 1139}}, "generalization": {"56": {"stimulus": 50, "trial": 56, "rt": 190, "response": "Alpha"}, "77": {"stimulus": 12, "trial": 77, "rt": 461, "response": "Alpha"}, "54": {"stimulus": 35, "trial": 54, "rt": 346, "response": "Alpha"}, "42": {"stimulus": 51, "trial": 42, "rt": 906, "response": "Alpha"}, "48": {"stimulus": 47, "trial": 48, "rt": 521, "response": "Alpha"}, "43": {"stimulus": 15, "trial": 43, "rt": 702, "response": "Alpha"}, "60": {"stimulus": 38, "trial": 60, "rt": 383, "response": "Alpha"}, "61": {"stimulus": 49, "trial": 61, "rt": 158, "response": "Alpha"}, "62": {"stimulus": 74, "trial": 62, "rt": 208, "response": "Alpha"}, "63": {"stimulus": 28, "trial": 63, "rt": 246, "response": "Alpha"}, "64": {"stimulus": 68, "trial": 64, "rt": 229, "response": "Alpha"}, "49": {"stimulus": 52, "trial": 49, "rt": 461, "response": "Alpha"}, "66": {"stimulus": 76, "trial": 66, "rt": 217, "response": "Alpha"}, "67": {"stimulus": 24, "trial": 67, "rt": 438, "response": "Alpha"}, "68": {"stimulus": 67, "trial": 68, "rt": 308, "response": "Alpha"}, "69": {"stimulus": 20, "trial": 69, "rt": 378, "response": "Alpha"}, "80": {"stimulus": 4, "trial": 80, "rt": 594, "response": "Beta"}, "52": {"stimulus": 13, "trial": 52, "rt": 379, "response": "Alpha"}, "53": {"stimulus": 29, "trial": 53, "rt": 377, "response": "Alpha"}, "24": {"stimulus": 60, "trial": 24, "rt": 833, "response": "Alpha"}, "25": {"stimulus": 58, "trial": 25, "rt": 849, "response": "Alpha"}, "26": {"stimulus": 2, "trial": 26, "rt": 531, "response": "Alpha"}, "27": {"stimulus": 42, "trial": 27, "rt": 1134, "response": "Alpha"}, "20": {"stimulus": 16, "trial": 20, "rt": 1483, "response": "Alpha"}, "21": {"stimulus": 33, "trial": 21, "rt": 692, "response": "Alpha"}, "22": {"stimulus": 70, "trial": 22, "rt": 1297, "response": "Beta"}, "23": {"stimulus": 34, "trial": 23, "rt": 615, "response": "Alpha"}, "46": {"stimulus": 77, "trial": 46, "rt": 1526, "response": "Alpha"}, "47": {"stimulus": 43, "trial": 47, "rt": 660, "response": "Alpha"}, "44": {"stimulus": 36, "trial": 44, "rt": 1069, "response": "Beta"}, "45": {"stimulus": 65, "trial": 45, "rt": 1931, "response": "Alpha"}, "28": {"stimulus": 75, "trial": 28, "rt": 8510, "response": "Alpha"}, "29": {"stimulus": 71, "trial": 29, "rt": 364, "response": "Alpha"}, "40": {"stimulus": 18, "trial": 40, "rt": 753, "response": "Beta"}, "41": {"stimulus": 66, "trial": 41, "rt": 708, "response": "Alpha"}, "1": {"stimulus": 10, "trial": 1, "rt": 1744, "response": "Alpha"}, "0": {"stimulus": 8, "trial": 0, "rt": 2137, "response": "Beta"}, "3": {"stimulus": 30, "trial": 3, "rt": 656, "response": "Beta"}, "2": {"stimulus": 55, "trial": 2, "rt": 735, "response": "Alpha"}, "5": {"stimulus": 40, "trial": 5, "rt": 551, "response": "Beta"}, "4": {"stimulus": 61, "trial": 4, "rt": 488, "response": "Alpha"}, "7": {"stimulus": 44, "trial": 7, "rt": 416, "response": "Alpha"}, "6": {"stimulus": 26, "trial": 6, "rt": 772, "response": "Alpha"}, "9": {"stimulus": 54, "trial": 9, "rt": 720, "response": "Alpha"}, "8": {"stimulus": 69, "trial": 8, "rt": 381, "response": "Alpha"}, "78": {"stimulus": 1, "trial": 78, "rt": 1700, "response": "Alpha"}, "51": {"stimulus": 80, "trial": 51, "rt": 1107, "response": "Alpha"}, "39": {"stimulus": 5, "trial": 39, "rt": 474, "response": "Alpha"}, "65": {"stimulus": 31, "trial": 65, "rt": 412, "response": "Alpha"}, "76": {"stimulus": 7, "trial": 76, "rt": 325, "response": "Alpha"}, "75": {"stimulus": 56, "trial": 75, "rt": 392, "response": "Alpha"}, "38": {"stimulus": 9, "trial": 38, "rt": 433, "response": "Alpha"}, "73": {"stimulus": 32, "trial": 73, "rt": 666, "response": "Alpha"}, "72": {"stimulus": 46, "trial": 72, "rt": 397, "response": "Alpha"}, "71": {"stimulus": 45, "trial": 71, "rt": 418, "response": "Alpha"}, "70": {"stimulus": 57, "trial": 70, "rt": 442, "response": "Alpha"}, "59": {"stimulus": 37, "trial": 59, "rt": 148, "response": "Alpha"}, "79": {"stimulus": 21, "trial": 79, "rt": 85, "response": "Alpha"}, "58": {"stimulus": 3, "trial": 58, "rt": 354, "response": "Alpha"}, "11": {"stimulus": 59, "trial": 11, "rt": 802, "response": "Beta"}, "10": {"stimulus": 73, "trial": 10, "rt": 567, "response": "Alpha"}, "13": {"stimulus": 14, "trial": 13, "rt": 1110, "response": "Alpha"}, "12": {"stimulus": 39, "trial": 12, "rt": 931, "response": "Alpha"}, "15": {"stimulus": 19, "trial": 15, "rt": 719, "response": "Beta"}, "14": {"stimulus": 48, "trial": 14, "rt": 735, "response": "Alpha"}, "17": {"stimulus": 22, "trial": 17, "rt": 806, "response": "Alpha"}, "16": {"stimulus": 63, "trial": 16, "rt": 730, "response": "Alpha"}, "19": {"stimulus": 79, "trial": 19, "rt": 311, "response": "Alpha"}, "18": {"stimulus": 64, "trial": 18, "rt": 451, "response": "Alpha"}, "31": {"stimulus": 25, "trial": 31, "rt": 426, "response": "Alpha"}, "30": {"stimulus": 6, "trial": 30, "rt": 1946, "response": "Alpha"}, "37": {"stimulus": 53, "trial": 37, "rt": 400, "response": "Alpha"}, "36": {"stimulus": 23, "trial": 36, "rt": 647, "response": "Alpha"}, "35": {"stimulus": 11, "trial": 35, "rt": 2153, "response": "Alpha"}, "34": {"stimulus": 78, "trial": 34, "rt": 373, "response": "Alpha"}, "33": {"stimulus": 72, "trial": 33, "rt": 522, "response": "Alpha"}, "55": {"stimulus": 0, "trial": 55, "rt": 353, "response": "Alpha"}, "74": {"stimulus": 27, "trial": 74, "rt": 31247, "response": "Alpha"}, "32": {"stimulus": 62, "trial": 32, "rt": 498, "response": "Alpha"}, "57": {"stimulus": 41, "trial": 57, "rt": 348, "response": "Alpha"}, "50": {"stimulus": 17, "trial": 50, "rt": 6091, "response": "Alpha"}}}