{"generation": {"1": {"stimulus": 63, "trial": 1, "rt": 7181}, "0": {"stimulus": 72, "trial": 0, "rt": 20517}, "3": {"stimulus": 73, "trial": 3, "rt": 7658}, "2": {"stimulus": 54, "trial": 2, "rt": 6417}}, "info": {"participant": 157, "exposed": true, "lab": false, "start": 1488822535366, "counterbalance": 0, "condition": "XOR", "browser": {"platform": "Win32", "userAgent": "Mozilla/5.0 (Windows NT 10.0; Win64; x64) AppleWebKit/537.36 (KHTML, like Gecko) Chrome/56.0.2924.87 Safari/537.36"}}, "experiment": {"Paradigm": "TACL", "Stimuli": "Size-Color Squares", "Experiment": "Generating-Categories"}, "observation": {"11": {"stimulus": 70, "trial": 11, "rt": 1161}, "10": {"stimulus": 10, "trial": 10, "rt": 1297}, "1": {"stimulus": 0, "trial": 1, "rt": 1542}, "0": {"stimulus": 80, "trial": 0, "rt": 12646}, "3": {"stimulus": 70, "trial": 3, "rt": 1391}, "2": {"stimulus": 10, "trial": 2, "rt": 1389}, "5": {"stimulus": 80, "trial": 5, "rt": 1885}, "4": {"stimulus": 0, "trial": 4, "rt": 1341}, "7": {"stimulus": 70, "trial": 7, "rt": 1140}, "6": {"stimulus": 10, "trial": 6, "rt": 1532}, "9": {"stimulus": 0, "trial": 9, "rt": 1086}, "8": {"stimulus": 80, "trial": 8, "rt": 1210}}, "generalization": {"56": {"stimulus": 61, "trial": 56, "rt": 1703, "response": "Alpha"}, "77": {"stimulus": 57, "trial": 77, "rt": 1983, "response": "Alpha"}, "54": {"stimulus": 72, "trial": 54, "rt": 1101, "response": "Beta"}, "42": {"stimulus": 46, "trial": 42, "rt": 2028, "response": "Alpha"}, "48": {"stimulus": 54, "trial": 48, "rt": 3337, "response": "Beta"}, "43": {"stimulus": 41, "trial": 43, "rt": 938, "response": "Alpha"}, "60": {"stimulus": 22, "trial": 60, "rt": 1486, "response": "Alpha"}, "61": {"stimulus": 28, "trial": 61, "rt": 1079, "response": "Alpha"}, "62": {"stimulus": 2, "trial": 62, "rt": 593, "response": "Alpha"}, "63": {"stimulus": 20, "trial": 63, "rt": 587, "response": "Alpha"}, "64": {"stimulus": 4, "trial": 64, "rt": 682, "response": "Alpha"}, "49": {"stimulus": 17, "trial": 49, "rt": 703, "response": "Alpha"}, "66": {"stimulus": 35, "trial": 66, "rt": 649, "response": "Alpha"}, "67": {"stimulus": 52, "trial": 67, "rt": 704, "response": "Alpha"}, "68": {"stimulus": 74, "trial": 68, "rt": 1954, "response": "Beta"}, "69": {"stimulus": 50, "trial": 69, "rt": 816, "response": "Alpha"}, "80": {"stimulus": 12, "trial": 80, "rt": 991, "response": "Alpha"}, "52": {"stimulus": 8, "trial": 52, "rt": 3521, "response": "Alpha"}, "53": {"stimulus": 7, "trial": 53, "rt": 1434, "response": "Alpha"}, "24": {"stimulus": 75, "trial": 24, "rt": 3715, "response": "Beta"}, "25": {"stimulus": 70, "trial": 25, "rt": 616, "response": "Alpha"}, "26": {"stimulus": 68, "trial": 26, "rt": 716, "response": "Alpha"}, "27": {"stimulus": 42, "trial": 27, "rt": 649, "response": "Alpha"}, "20": {"stimulus": 13, "trial": 20, "rt": 765, "response": "Alpha"}, "21": {"stimulus": 40, "trial": 21, "rt": 933, "response": "Alpha"}, "22": {"stimulus": 53, "trial": 22, "rt": 894, "response": "Alpha"}, "23": {"stimulus": 63, "trial": 23, "rt": 1071, "response": "Beta"}, "46": {"stimulus": 37, "trial": 46, "rt": 1176, "response": "Alpha"}, "47": {"stimulus": 48, "trial": 47, "rt": 987, "response": "Alpha"}, "44": {"stimulus": 39, "trial": 44, "rt": 851, "response": "Alpha"}, "45": {"stimulus": 32, "trial": 45, "rt": 955, "response": "Alpha"}, "28": {"stimulus": 45, "trial": 28, "rt": 1363, "response": "Alpha"}, "29": {"stimulus": 25, "trial": 29, "rt": 649, "response": "Alpha"}, "40": {"stimulus": 5, "trial": 40, "rt": 931, "response": "Alpha"}, "41": {"stimulus": 0, "trial": 41, "rt": 628, "response": "Alpha"}, "1": {"stimulus": 44, "trial": 1, "rt": 1412, "response": "Alpha"}, "0": {"stimulus": 71, "trial": 0, "rt": 1596, "response": "Alpha"}, "3": {"stimulus": 16, "trial": 3, "rt": 916, "response": "Alpha"}, "2": {"stimulus": 26, "trial": 2, "rt": 957, "response": "Alpha"}, "5": {"stimulus": 9, "trial": 5, "rt": 3726, "response": "Alpha"}, "4": {"stimulus": 24, "trial": 4, "rt": 910, "response": "Alpha"}, "7": {"stimulus": 64, "trial": 7, "rt": 1986, "response": "Beta"}, "6": {"stimulus": 36, "trial": 6, "rt": 1435, "response": "Alpha"}, "9": {"stimulus": 43, "trial": 9, "rt": 847, "response": "Alpha"}, "8": {"stimulus": 19, "trial": 8, "rt": 809, "response": "Alpha"}, "78": {"stimulus": 62, "trial": 78, "rt": 694, "response": "Alpha"}, "51": {"stimulus": 80, "trial": 51, "rt": 1523, "response": "Alpha"}, "39": {"stimulus": 47, "trial": 39, "rt": 1511, "response": "Alpha"}, "65": {"stimulus": 55, "trial": 65, "rt": 2044, "response": "Beta"}, "76": {"stimulus": 34, "trial": 76, "rt": 1270, "response": "Alpha"}, "75": {"stimulus": 11, "trial": 75, "rt": 1019, "response": "Alpha"}, "38": {"stimulus": 56, "trial": 38, "rt": 745, "response": "Alpha"}, "73": {"stimulus": 77, "trial": 73, "rt": 1694, "response": "Alpha"}, "72": {"stimulus": 15, "trial": 72, "rt": 1590, "response": "Alpha"}, "71": {"stimulus": 31, "trial": 71, "rt": 830, "response": "Alpha"}, "70": {"stimulus": 1, "trial": 70, "rt": 786, "response": "Alpha"}, "59": {"stimulus": 65, "trial": 59, "rt": 2024, "response": "Beta"}, "79": {"stimulus": 67, "trial": 79, "rt": 745, "response": "Alpha"}, "58": {"stimulus": 60, "trial": 58, "rt": 6825, "response": "Alpha"}, "11": {"stimulus": 18, "trial": 11, "rt": 931, "response": "Alpha"}, "10": {"stimulus": 21, "trial": 10, "rt": 640, "response": "Alpha"}, "13": {"stimulus": 33, "trial": 13, "rt": 835, "response": "Alpha"}, "12": {"stimulus": 3, "trial": 12, "rt": 744, "response": "Alpha"}, "15": {"stimulus": 10, "trial": 15, "rt": 594, "response": "Alpha"}, "14": {"stimulus": 73, "trial": 14, "rt": 1114, "response": "Beta"}, "17": {"stimulus": 79, "trial": 17, "rt": 1234, "response": "Alpha"}, "16": {"stimulus": 69, "trial": 16, "rt": 1476, "response": "Alpha"}, "19": {"stimulus": 66, "trial": 19, "rt": 2129, "response": "Alpha"}, "18": {"stimulus": 51, "trial": 18, "rt": 919, "response": "Alpha"}, "31": {"stimulus": 23, "trial": 31, "rt": 663, "response": "Alpha"}, "30": {"stimulus": 49, "trial": 30, "rt": 804, "response": "Alpha"}, "37": {"stimulus": 76, "trial": 37, "rt": 3270, "response": "Beta"}, "36": {"stimulus": 30, "trial": 36, "rt": 900, "response": "Alpha"}, "35": {"stimulus": 38, "trial": 35, "rt": 1563, "response": "Alpha"}, "34": {"stimulus": 14, "trial": 34, "rt": 944, "response": "Alpha"}, "33": {"stimulus": 27, "trial": 33, "rt": 1077, "response": "Alpha"}, "55": {"stimulus": 29, "trial": 55, "rt": 776, "response": "Alpha"}, "74": {"stimulus": 59, "trial": 74, "rt": 775, "response": "Alpha"}, "32": {"stimulus": 78, "trial": 32, "rt": 1397, "response": "Alpha"}, "57": {"stimulus": 58, "trial": 57, "rt": 1091, "response": "Alpha"}, "50": {"stimulus": 6, "trial": 50, "rt": 1056, "response": "Alpha"}}}6, "response": "Alpha"}}}