{"generation": {"1": {"stimulus": 80, "trial": 1, "rt": 7532}, "0": {"stimulus": 73, "trial": 0, "rt": 16032}, "3": {"stimulus": 72, "trial": 3, "rt": 10551}, "2": {"stimulus": 79, "trial": 2, "rt": 11269}}, "info": {"finish": 1488822866783, "participant": 158, "exposed": true, "lab": false, "start": 1488822569106, "counterbalance": 0, "condition": "Row", "browser": {"platform": "Win32", "userAgent": "Mozilla/5.0 (Windows NT 6.2; WOW64; rv:51.0) Gecko/20100101 Firefox/51.0"}}, "experiment": {"Paradigm": "TACL", "Stimuli": "Size-Color Squares", "Experiment": "Generating-Categories"}, "observation": {"11": {"stimulus": 14, "trial": 11, "rt": 1424}, "10": {"stimulus": 12, "trial": 10, "rt": 1784}, "1": {"stimulus": 16, "trial": 1, "rt": 2738}, "0": {"stimulus": 10, "trial": 0, "rt": 8627}, "3": {"stimulus": 12, "trial": 3, "rt": 1740}, "2": {"stimulus": 14, "trial": 2, "rt": 1946}, "5": {"stimulus": 16, "trial": 5, "rt": 2080}, "4": {"stimulus": 12, "trial": 4, "rt": 1706}, "7": {"stimulus": 10, "trial": 7, "rt": 2320}, "6": {"stimulus": 14, "trial": 6, "rt": 4747}, "9": {"stimulus": 10, "trial": 9, "rt": 1881}, "8": {"stimulus": 16, "trial": 8, "rt": 2550}}, "generalization": {"56": {"stimulus": 6, "trial": 56, "rt": 824, "response": "Alpha"}, "77": {"stimulus": 3, "trial": 77, "rt": 1046, "response": "Alpha"}, "54": {"stimulus": 16, "trial": 54, "rt": 810, "response": "Alpha"}, "42": {"stimulus": 71, "trial": 42, "rt": 1392, "response": "Beta"}, "48": {"stimulus": 7, "trial": 48, "rt": 658, "response": "Alpha"}, "43": {"stimulus": 67, "trial": 43, "rt": 1096, "response": "Beta"}, "60": {"stimulus": 74, "trial": 60, "rt": 1653, "response": "Beta"}, "61": {"stimulus": 55, "trial": 61, "rt": 1033, "response": "Beta"}, "62": {"stimulus": 49, "trial": 62, "rt": 2526, "response": "Alpha"}, "63": {"stimulus": 39, "trial": 63, "rt": 886, "response": "Alpha"}, "64": {"stimulus": 43, "trial": 64, "rt": 1152, "response": "Alpha"}, "49": {"stimulus": 65, "trial": 49, "rt": 1078, "response": "Beta"}, "66": {"stimulus": 20, "trial": 66, "rt": 863, "response": "Alpha"}, "67": {"stimulus": 45, "trial": 67, "rt": 960, "response": "Alpha"}, "68": {"stimulus": 24, "trial": 68, "rt": 763, "response": "Alpha"}, "69": {"stimulus": 28, "trial": 69, "rt": 689, "response": "Alpha"}, "80": {"stimulus": 51, "trial": 80, "rt": 1044, "response": "Alpha"}, "52": {"stimulus": 60, "trial": 52, "rt": 821, "response": "Beta"}, "53": {"stimulus": 4, "trial": 53, "rt": 1045, "response": "Alpha"}, "24": {"stimulus": 80, "trial": 24, "rt": 718, "response": "Beta"}, "25": {"stimulus": 44, "trial": 25, "rt": 1084, "response": "Alpha"}, "26": {"stimulus": 41, "trial": 26, "rt": 882, "response": "Alpha"}, "27": {"stimulus": 15, "trial": 27, "rt": 835, "response": "Alpha"}, "20": {"stimulus": 56, "trial": 20, "rt": 2601, "response": "Alpha"}, "21": {"stimulus": 14, "trial": 21, "rt": 908, "response": "Alpha"}, "22": {"stimulus": 57, "trial": 22, "rt": 1342, "response": "Alpha"}, "23": {"stimulus": 73, "trial": 23, "rt": 1002, "response": "Beta"}, "46": {"stimulus": 33, "trial": 46, "rt": 783, "response": "Alpha"}, "47": {"stimulus": 17, "trial": 47, "rt": 678, "response": "Alpha"}, "44": {"stimulus": 79, "trial": 44, "rt": 1100, "response": "Beta"}, "45": {"stimulus": 58, "trial": 45, "rt": 1331, "response": "Alpha"}, "28": {"stimulus": 10, "trial": 28, "rt": 964, "response": "Alpha"}, "29": {"stimulus": 70, "trial": 29, "rt": 2654, "response": "Alpha"}, "40": {"stimulus": 53, "trial": 40, "rt": 1303, "response": "Alpha"}, "41": {"stimulus": 21, "trial": 41, "rt": 731, "response": "Alpha"}, "1": {"stimulus": 19, "trial": 1, "rt": 1751, "response": "Alpha"}, "0": {"stimulus": 42, "trial": 0, "rt": 4830, "response": "Alpha"}, "3": {"stimulus": 62, "trial": 3, "rt": 1337, "response": "Beta"}, "2": {"stimulus": 64, "trial": 2, "rt": 1333, "response": "Beta"}, "5": {"stimulus": 2, "trial": 5, "rt": 1104, "response": "Alpha"}, "4": {"stimulus": 54, "trial": 4, "rt": 1285, "response": "Beta"}, "7": {"stimulus": 40, "trial": 7, "rt": 6573, "response": "Alpha"}, "6": {"stimulus": 46, "trial": 6, "rt": 1087, "response": "Beta"}, "9": {"stimulus": 61, "trial": 9, "rt": 1174, "response": "Alpha"}, "8": {"stimulus": 9, "trial": 8, "rt": 1110, "response": "Alpha"}, "78": {"stimulus": 5, "trial": 78, "rt": 1155, "response": "Alpha"}, "51": {"stimulus": 72, "trial": 51, "rt": 1087, "response": "Beta"}, "39": {"stimulus": 69, "trial": 39, "rt": 698, "response": "Beta"}, "65": {"stimulus": 1, "trial": 65, "rt": 1135, "response": "Alpha"}, "76": {"stimulus": 78, "trial": 76, "rt": 1174, "response": "Beta"}, "75": {"stimulus": 50, "trial": 75, "rt": 884, "response": "Alpha"}, "38": {"stimulus": 76, "trial": 38, "rt": 1202, "response": "Beta"}, "73": {"stimulus": 77, "trial": 73, "rt": 1132, "response": "Beta"}, "72": {"stimulus": 48, "trial": 72, "rt": 1062, "response": "Alpha"}, "71": {"stimulus": 36, "trial": 71, "rt": 729, "response": "Alpha"}, "70": {"stimulus": 18, "trial": 70, "rt": 598, "response": "Alpha"}, "59": {"stimulus": 37, "trial": 59, "rt": 775, "response": "Alpha"}, "79": {"stimulus": 26, "trial": 79, "rt": 931, "response": "Alpha"}, "58": {"stimulus": 27, "trial": 58, "rt": 800, "response": "Alpha"}, "11": {"stimulus": 68, "trial": 11, "rt": 1218, "response": "Beta"}, "10": {"stimulus": 47, "trial": 10, "rt": 1014, "response": "Alpha"}, "13": {"stimulus": 75, "trial": 13, "rt": 1057, "response": "Beta"}, "12": {"stimulus": 25, "trial": 12, "rt": 1044, "response": "Alpha"}, "15": {"stimulus": 66, "trial": 15, "rt": 693, "response": "Beta"}, "14": {"stimulus": 63, "trial": 14, "rt": 782, "response": "Beta"}, "17": {"stimulus": 34, "trial": 17, "rt": 921, "response": "Alpha"}, "16": {"stimulus": 23, "trial": 16, "rt": 1106, "response": "Alpha"}, "19": {"stimulus": 31, "trial": 19, "rt": 810, "response": "Alpha"}, "18": {"stimulus": 32, "trial": 18, "rt": 795, "response": "Alpha"}, "31": {"stimulus": 13, "trial": 31, "rt": 1718, "response": "Alpha"}, "30": {"stimulus": 59, "trial": 30, "rt": 1306, "response": "Alpha"}, "37": {"stimulus": 0, "trial": 37, "rt": 654, "response": "Alpha"}, "36": {"stimulus": 29, "trial": 36, "rt": 626, "response": "Alpha"}, "35": {"stimulus": 11, "trial": 35, "rt": 780, "response": "Alpha"}, "34": {"stimulus": 35, "trial": 34, "rt": 758, "response": "Alpha"}, "33": {"stimulus": 52, "trial": 33, "rt": 947, "response": "Alpha"}, "55": {"stimulus": 22, "trial": 55, "rt": 761, "response": "Alpha"}, "74": {"stimulus": 30, "trial": 74, "rt": 7883, "response": "Alpha"}, "32": {"stimulus": 12, "trial": 32, "rt": 819, "response": "Alpha"}, "57": {"stimulus": 38, "trial": 57, "rt": 1480, "response": "Alpha"}, "50": {"stimulus": 8, "trial": 50, "rt": 933, "response": "Alpha"}}}