{"generation": {"1": {"stimulus": 72, "trial": 1, "rt": 24730}, "0": {"stimulus": 16, "trial": 0, "rt": 20955}, "3": {"stimulus": 75, "trial": 3, "rt": 11954}, "2": {"stimulus": 76, "trial": 2, "rt": 13186}}, "info": {"finish": 1488822137326, "participant": 16, "exposed": true, "lab": false, "start": 1488821805432, "counterbalance": 5, "condition": "XOR", "browser": {"platform": "Win32", "userAgent": "Mozilla/5.0 (Windows NT 10.0; Win64; x64) AppleWebKit/537.36 (KHTML, like Gecko) Chrome/57.0.2987.88 Safari/537.36"}}, "experiment": {"Paradigm": "TACL", "Stimuli": "Size-Color Squares", "Experiment": "Generating-Categories"}, "observation": {"11": {"stimulus": 10, "trial": 11, "rt": 1431}, "10": {"stimulus": 80, "trial": 10, "rt": 786}, "1": {"stimulus": 70, "trial": 1, "rt": 2099}, "0": {"stimulus": 80, "trial": 0, "rt": 3231}, "3": {"stimulus": 0, "trial": 3, "rt": 1481}, "2": {"stimulus": 10, "trial": 2, "rt": 1637}, "5": {"stimulus": 10, "trial": 5, "rt": 1369}, "4": {"stimulus": 80, "trial": 4, "rt": 2089}, "7": {"stimulus": 70, "trial": 7, "rt": 1222}, "6": {"stimulus": 0, "trial": 6, "rt": 1245}, "9": {"stimulus": 0, "trial": 9, "rt": 1070}, "8": {"stimulus": 70, "trial": 8, "rt": 1423}}, "generalization": {"56": {"stimulus": 63, "trial": 56, "rt": 965, "response": "Beta"}, "77": {"stimulus": 30, "trial": 77, "rt": 587, "response": "Beta"}, "54": {"stimulus": 57, "trial": 54, "rt": 868, "response": "Beta"}, "42": {"stimulus": 52, "trial": 42, "rt": 1433, "response": "Alpha"}, "48": {"stimulus": 69, "trial": 48, "rt": 1354, "response": "Beta"}, "43": {"stimulus": 36, "trial": 43, "rt": 2673, "response": "Beta"}, "60": {"stimulus": 9, "trial": 60, "rt": 1003, "response": "Alpha"}, "61": {"stimulus": 80, "trial": 61, "rt": 1558, "response": "Alpha"}, "62": {"stimulus": 54, "trial": 62, "rt": 2775, "response": "Beta"}, "63": {"stimulus": 19, "trial": 63, "rt": 1042, "response": "Beta"}, "64": {"stimulus": 25, "trial": 64, "rt": 1216, "response": "Beta"}, "49": {"stimulus": 13, "trial": 49, "rt": 770, "response": "Beta"}, "66": {"stimulus": 1, "trial": 66, "rt": 729, "response": "Beta"}, "67": {"stimulus": 11, "trial": 67, "rt": 1353, "response": "Beta"}, "68": {"stimulus": 5, "trial": 68, "rt": 815, "response": "Beta"}, "69": {"stimulus": 55, "trial": 69, "rt": 2242, "response": "Beta"}, "80": {"stimulus": 20, "trial": 80, "rt": 624, "response": "Beta"}, "52": {"stimulus": 56, "trial": 52, "rt": 1273, "response": "Beta"}, "53": {"stimulus": 7, "trial": 53, "rt": 785, "response": "Beta"}, "24": {"stimulus": 31, "trial": 24, "rt": 2165, "response": "Beta"}, "25": {"stimulus": 16, "trial": 25, "rt": 1282, "response": "Beta"}, "26": {"stimulus": 24, "trial": 26, "rt": 1473, "response": "Beta"}, "27": {"stimulus": 4, "trial": 27, "rt": 677, "response": "Beta"}, "20": {"stimulus": 6, "trial": 20, "rt": 1099, "response": "Beta"}, "21": {"stimulus": 68, "trial": 21, "rt": 927, "response": "Beta"}, "22": {"stimulus": 39, "trial": 22, "rt": 628, "response": "Beta"}, "23": {"stimulus": 65, "trial": 23, "rt": 818, "response": "Beta"}, "46": {"stimulus": 17, "trial": 46, "rt": 1059, "response": "Beta"}, "47": {"stimulus": 27, "trial": 47, "rt": 1321, "response": "Alpha"}, "44": {"stimulus": 26, "trial": 44, "rt": 826, "response": "Beta"}, "45": {"stimulus": 78, "trial": 45, "rt": 1064, "response": "Beta"}, "28": {"stimulus": 49, "trial": 28, "rt": 4600, "response": "Beta"}, "29": {"stimulus": 74, "trial": 29, "rt": 1030, "response": "Beta"}, "40": {"stimulus": 2, "trial": 40, "rt": 1439, "response": "Beta"}, "41": {"stimulus": 8, "trial": 41, "rt": 1068, "response": "Beta"}, "1": {"stimulus": 73, "trial": 1, "rt": 1610, "response": "Beta"}, "0": {"stimulus": 42, "trial": 0, "rt": 1907, "response": "Alpha"}, "3": {"stimulus": 29, "trial": 3, "rt": 3619, "response": "Alpha"}, "2": {"stimulus": 58, "trial": 2, "rt": 1443, "response": "Beta"}, "5": {"stimulus": 45, "trial": 5, "rt": 1818, "response": "Alpha"}, "4": {"stimulus": 3, "trial": 4, "rt": 5501, "response": "Beta"}, "7": {"stimulus": 72, "trial": 7, "rt": 1673, "response": "Beta"}, "6": {"stimulus": 28, "trial": 6, "rt": 2346, "response": "Alpha"}, "9": {"stimulus": 70, "trial": 9, "rt": 887, "response": "Alpha"}, "8": {"stimulus": 71, "trial": 8, "rt": 1490, "response": "Alpha"}, "78": {"stimulus": 76, "trial": 78, "rt": 740, "response": "Beta"}, "51": {"stimulus": 53, "trial": 51, "rt": 989, "response": "Alpha"}, "39": {"stimulus": 50, "trial": 39, "rt": 11394, "response": "Beta"}, "65": {"stimulus": 41, "trial": 65, "rt": 914, "response": "Beta"}, "76": {"stimulus": 60, "trial": 76, "rt": 574, "response": "Beta"}, "75": {"stimulus": 22, "trial": 75, "rt": 554, "response": "Beta"}, "38": {"stimulus": 18, "trial": 38, "rt": 970, "response": "Beta"}, "73": {"stimulus": 47, "trial": 73, "rt": 671, "response": "Beta"}, "72": {"stimulus": 46, "trial": 72, "rt": 926, "response": "Beta"}, "71": {"stimulus": 10, "trial": 71, "rt": 2954, "response": "Beta"}, "70": {"stimulus": 79, "trial": 70, "rt": 1159, "response": "Alpha"}, "59": {"stimulus": 62, "trial": 59, "rt": 1111, "response": "Alpha"}, "79": {"stimulus": 75, "trial": 79, "rt": 609, "response": "Beta"}, "58": {"stimulus": 14, "trial": 58, "rt": 786, "response": "Beta"}, "11": {"stimulus": 61, "trial": 11, "rt": 1164, "response": "Alpha"}, "10": {"stimulus": 40, "trial": 10, "rt": 1069, "response": "Beta"}, "13": {"stimulus": 33, "trial": 13, "rt": 1159, "response": "Beta"}, "12": {"stimulus": 51, "trial": 12, "rt": 1376, "response": "Beta"}, "15": {"stimulus": 34, "trial": 15, "rt": 3426, "response": "Beta"}, "14": {"stimulus": 48, "trial": 14, "rt": 1197, "response": "Beta"}, "17": {"stimulus": 23, "trial": 17, "rt": 1018, "response": "Beta"}, "16": {"stimulus": 12, "trial": 16, "rt": 1190, "response": "Beta"}, "19": {"stimulus": 77, "trial": 19, "rt": 840, "response": "Beta"}, "18": {"stimulus": 67, "trial": 18, "rt": 1118, "response": "Beta"}, "31": {"stimulus": 35, "trial": 31, "rt": 3099, "response": "Beta"}, "30": {"stimulus": 37, "trial": 30, "rt": 1714, "response": "Alpha"}, "37": {"stimulus": 59, "trial": 37, "rt": 1194, "response": "Beta"}, "36": {"stimulus": 0, "trial": 36, "rt": 2122, "response": "Alpha"}, "35": {"stimulus": 66, "trial": 35, "rt": 999, "response": "Beta"}, "34": {"stimulus": 32, "trial": 34, "rt": 957, "response": "Beta"}, "33": {"stimulus": 21, "trial": 33, "rt": 1877, "response": "Beta"}, "55": {"stimulus": 43, "trial": 55, "rt": 1199, "response": "Beta"}, "74": {"stimulus": 64, "trial": 74, "rt": 629, "response": "Beta"}, "32": {"stimulus": 44, "trial": 32, "rt": 1014, "response": "Beta"}, "57": {"stimulus": 38, "trial": 57, "rt": 997, "response": "Beta"}, "50": {"stimulus": 15, "trial": 50, "rt": 951, "response": "Beta"}}}