{"generation": {"1": {"stimulus": 19, "trial": 1, "rt": 31104}, "0": {"stimulus": 18, "trial": 0, "rt": 17249}, "3": {"stimulus": 55, "trial": 3, "rt": 6376}, "2": {"stimulus": 63, "trial": 2, "rt": 16371}}, "info": {"finish": 1488823044060, "participant": 160, "exposed": true, "lab": false, "start": 1488822642344, "counterbalance": 7, "condition": "Cluster", "browser": {"platform": "Win32", "userAgent": "Mozilla/5.0 (Windows NT 6.3; WOW64; rv:51.0) Gecko/20100101 Firefox/51.0"}}, "experiment": {"Paradigm": "TACL", "Stimuli": "Size-Color Squares", "Experiment": "Generating-Categories"}, "observation": {"11": {"stimulus": 32, "trial": 11, "rt": 9466}, "10": {"stimulus": 16, "trial": 10, "rt": 2429}, "1": {"stimulus": 16, "trial": 1, "rt": 2764}, "0": {"stimulus": 14, "trial": 0, "rt": 10185}, "3": {"stimulus": 34, "trial": 3, "rt": 2225}, "2": {"stimulus": 32, "trial": 2, "rt": 2264}, "5": {"stimulus": 16, "trial": 5, "rt": 1614}, "4": {"stimulus": 34, "trial": 4, "rt": 2908}, "7": {"stimulus": 14, "trial": 7, "rt": 1637}, "6": {"stimulus": 32, "trial": 6, "rt": 1646}, "9": {"stimulus": 14, "trial": 9, "rt": 1178}, "8": {"stimulus": 34, "trial": 8, "rt": 1159}}, "generalization": {"56": {"stimulus": 32, "trial": 56, "rt": 1096, "response": "Alpha"}, "77": {"stimulus": 18, "trial": 77, "rt": 739, "response": "Beta"}, "54": {"stimulus": 27, "trial": 54, "rt": 1380, "response": "Beta"}, "42": {"stimulus": 60, "trial": 42, "rt": 1289, "response": "Alpha"}, "48": {"stimulus": 12, "trial": 48, "rt": 1576, "response": "Alpha"}, "43": {"stimulus": 80, "trial": 43, "rt": 758, "response": "Alpha"}, "60": {"stimulus": 45, "trial": 60, "rt": 1203, "response": "Beta"}, "61": {"stimulus": 51, "trial": 61, "rt": 865, "response": "Alpha"}, "62": {"stimulus": 49, "trial": 62, "rt": 2517, "response": "Alpha"}, "63": {"stimulus": 35, "trial": 63, "rt": 1139, "response": "Alpha"}, "64": {"stimulus": 40, "trial": 64, "rt": 1155, "response": "Alpha"}, "49": {"stimulus": 58, "trial": 49, "rt": 770, "response": "Alpha"}, "66": {"stimulus": 30, "trial": 66, "rt": 1189, "response": "Beta"}, "67": {"stimulus": 71, "trial": 67, "rt": 1209, "response": "Alpha"}, "68": {"stimulus": 10, "trial": 68, "rt": 1146, "response": "Beta"}, "69": {"stimulus": 68, "trial": 69, "rt": 2118, "response": "Alpha"}, "80": {"stimulus": 48, "trial": 80, "rt": 1488, "response": "Alpha"}, "52": {"stimulus": 62, "trial": 52, "rt": 746, "response": "Alpha"}, "53": {"stimulus": 13, "trial": 53, "rt": 799, "response": "Alpha"}, "24": {"stimulus": 20, "trial": 24, "rt": 3875, "response": "Beta"}, "25": {"stimulus": 56, "trial": 25, "rt": 819, "response": "Beta"}, "26": {"stimulus": 4, "trial": 26, "rt": 1308, "response": "Alpha"}, "27": {"stimulus": 21, "trial": 27, "rt": 4929, "response": "Alpha"}, "20": {"stimulus": 16, "trial": 20, "rt": 1015, "response": "Alpha"}, "21": {"stimulus": 52, "trial": 21, "rt": 878, "response": "Alpha"}, "22": {"stimulus": 61, "trial": 22, "rt": 1131, "response": "Alpha"}, "23": {"stimulus": 76, "trial": 23, "rt": 2944, "response": "Alpha"}, "46": {"stimulus": 1, "trial": 46, "rt": 1149, "response": "Beta"}, "47": {"stimulus": 33, "trial": 47, "rt": 1279, "response": "Alpha"}, "44": {"stimulus": 59, "trial": 44, "rt": 1099, "response": "Alpha"}, "45": {"stimulus": 70, "trial": 45, "rt": 810, "response": "Alpha"}, "28": {"stimulus": 6, "trial": 28, "rt": 1264, "response": "Alpha"}, "29": {"stimulus": 7, "trial": 29, "rt": 867, "response": "Alpha"}, "40": {"stimulus": 2, "trial": 40, "rt": 1310, "response": "Beta"}, "41": {"stimulus": 57, "trial": 41, "rt": 1958, "response": "Beta"}, "1": {"stimulus": 15, "trial": 1, "rt": 1405, "response": "Alpha"}, "0": {"stimulus": 44, "trial": 0, "rt": 2563, "response": "Alpha"}, "3": {"stimulus": 37, "trial": 3, "rt": 1303, "response": "Beta"}, "2": {"stimulus": 26, "trial": 2, "rt": 1136, "response": "Alpha"}, "5": {"stimulus": 25, "trial": 5, "rt": 1041, "response": "Alpha"}, "4": {"stimulus": 50, "trial": 4, "rt": 1103, "response": "Alpha"}, "7": {"stimulus": 65, "trial": 7, "rt": 1196, "response": "Beta"}, "6": {"stimulus": 5, "trial": 6, "rt": 1238, "response": "Alpha"}, "9": {"stimulus": 64, "trial": 9, "rt": 2201, "response": "Beta"}, "8": {"stimulus": 53, "trial": 8, "rt": 832, "response": "Alpha"}, "78": {"stimulus": 46, "trial": 78, "rt": 840, "response": "Beta"}, "51": {"stimulus": 41, "trial": 51, "rt": 672, "response": "Alpha"}, "39": {"stimulus": 22, "trial": 39, "rt": 2248, "response": "Alpha"}, "65": {"stimulus": 36, "trial": 65, "rt": 1411, "response": "Beta"}, "76": {"stimulus": 74, "trial": 76, "rt": 3338, "response": "Beta"}, "75": {"stimulus": 9, "trial": 75, "rt": 1105, "response": "Beta"}, "38": {"stimulus": 43, "trial": 38, "rt": 822, "response": "Alpha"}, "73": {"stimulus": 78, "trial": 73, "rt": 1728, "response": "Alpha"}, "72": {"stimulus": 19, "trial": 72, "rt": 585, "response": "Beta"}, "71": {"stimulus": 0, "trial": 71, "rt": 740, "response": "Beta"}, "70": {"stimulus": 11, "trial": 70, "rt": 1105, "response": "Beta"}, "59": {"stimulus": 14, "trial": 59, "rt": 1151, "response": "Alpha"}, "79": {"stimulus": 55, "trial": 79, "rt": 766, "response": "Beta"}, "58": {"stimulus": 3, "trial": 58, "rt": 7971, "response": "Beta"}, "11": {"stimulus": 31, "trial": 11, "rt": 1026, "response": "Alpha"}, "10": {"stimulus": 63, "trial": 10, "rt": 989, "response": "Beta"}, "13": {"stimulus": 28, "trial": 13, "rt": 1753, "response": "Beta"}, "12": {"stimulus": 47, "trial": 12, "rt": 1947, "response": "Beta"}, "15": {"stimulus": 67, "trial": 15, "rt": 777, "response": "Alpha"}, "14": {"stimulus": 54, "trial": 14, "rt": 1739, "response": "Beta"}, "17": {"stimulus": 38, "trial": 17, "rt": 4990, "response": "Beta"}, "16": {"stimulus": 72, "trial": 16, "rt": 2770, "response": "Beta"}, "19": {"stimulus": 69, "trial": 19, "rt": 1454, "response": "Alpha"}, "18": {"stimulus": 17, "trial": 18, "rt": 780, "response": "Alpha"}, "31": {"stimulus": 75, "trial": 31, "rt": 1144, "response": "Beta"}, "30": {"stimulus": 8, "trial": 30, "rt": 1519, "response": "Alpha"}, "37": {"stimulus": 79, "trial": 37, "rt": 672, "response": "Alpha"}, "36": {"stimulus": 42, "trial": 36, "rt": 1547, "response": "Alpha"}, "35": {"stimulus": 73, "trial": 35, "rt": 986, "response": "Beta"}, "34": {"stimulus": 23, "trial": 34, "rt": 842, "response": "Alpha"}, "33": {"stimulus": 34, "trial": 33, "rt": 1416, "response": "Alpha"}, "55": {"stimulus": 66, "trial": 55, "rt": 4204, "response": "Beta"}, "74": {"stimulus": 24, "trial": 74, "rt": 1077, "response": "Alpha"}, "32": {"stimulus": 39, "trial": 32, "rt": 997, "response": "Beta"}, "57": {"stimulus": 29, "trial": 57, "rt": 1675, "response": "Beta"}, "50": {"stimulus": 77, "trial": 50, "rt": 649, "response": "Alpha"}}}