{"generation": {"1": {"stimulus": 55, "trial": 1, "rt": 4358}, "0": {"stimulus": 63, "trial": 0, "rt": 11153}, "3": {"stimulus": 0, "trial": 3, "rt": 7432}, "2": {"stimulus": 56, "trial": 2, "rt": 8341}}, "info": {"finish": 1488822917579, "participant": 161, "exposed": true, "lab": false, "start": 1488822607428, "counterbalance": 3, "condition": "Cluster", "browser": {"platform": "MacIntel", "userAgent": "Mozilla/5.0 (Macintosh; Intel Mac OS X 10_12_3) AppleWebKit/537.36 (KHTML, like Gecko) Chrome/56.0.2924.87 Safari/537.36"}}, "experiment": {"Paradigm": "TACL", "Stimuli": "Size-Color Squares", "Experiment": "Generating-Categories"}, "observation": {"11": {"stimulus": 16, "trial": 11, "rt": 1501}, "10": {"stimulus": 32, "trial": 10, "rt": 1288}, "1": {"stimulus": 14, "trial": 1, "rt": 1637}, "0": {"stimulus": 34, "trial": 0, "rt": 31525}, "3": {"stimulus": 32, "trial": 3, "rt": 1556}, "2": {"stimulus": 16, "trial": 2, "rt": 27353}, "5": {"stimulus": 32, "trial": 5, "rt": 3582}, "4": {"stimulus": 16, "trial": 4, "rt": 1727}, "7": {"stimulus": 34, "trial": 7, "rt": 1119}, "6": {"stimulus": 14, "trial": 6, "rt": 1963}, "9": {"stimulus": 14, "trial": 9, "rt": 1468}, "8": {"stimulus": 34, "trial": 8, "rt": 1468}}, "generalization": {"56": {"stimulus": 7, "trial": 56, "rt": 1062, "response": "Alpha"}, "77": {"stimulus": 67, "trial": 77, "rt": 759, "response": "Beta"}, "54": {"stimulus": 9, "trial": 54, "rt": 1006, "response": "Beta"}, "42": {"stimulus": 22, "trial": 42, "rt": 1163, "response": "Alpha"}, "48": {"stimulus": 26, "trial": 48, "rt": 893, "response": "Alpha"}, "43": {"stimulus": 31, "trial": 43, "rt": 837, "response": "Alpha"}, "60": {"stimulus": 1, "trial": 60, "rt": 601, "response": "Beta"}, "61": {"stimulus": 11, "trial": 61, "rt": 567, "response": "Beta"}, "62": {"stimulus": 51, "trial": 62, "rt": 781, "response": "Alpha"}, "63": {"stimulus": 29, "trial": 63, "rt": 669, "response": "Beta"}, "64": {"stimulus": 8, "trial": 64, "rt": 904, "response": "Alpha"}, "49": {"stimulus": 23, "trial": 49, "rt": 713, "response": "Alpha"}, "66": {"stimulus": 20, "trial": 66, "rt": 1559, "response": "Beta"}, "67": {"stimulus": 71, "trial": 67, "rt": 1345, "response": "Beta"}, "68": {"stimulus": 58, "trial": 68, "rt": 1366, "response": "Beta"}, "69": {"stimulus": 28, "trial": 69, "rt": 1568, "response": "Beta"}, "80": {"stimulus": 27, "trial": 80, "rt": 1040, "response": "Beta"}, "52": {"stimulus": 4, "trial": 52, "rt": 658, "response": "Beta"}, "53": {"stimulus": 48, "trial": 53, "rt": 1152, "response": "Beta"}, "24": {"stimulus": 6, "trial": 24, "rt": 703, "response": "Alpha"}, "25": {"stimulus": 60, "trial": 25, "rt": 748, "response": "Beta"}, "26": {"stimulus": 49, "trial": 26, "rt": 635, "response": "Beta"}, "27": {"stimulus": 2, "trial": 27, "rt": 2997, "response": "Beta"}, "20": {"stimulus": 77, "trial": 20, "rt": 882, "response": "Beta"}, "21": {"stimulus": 80, "trial": 21, "rt": 1333, "response": "Beta"}, "22": {"stimulus": 65, "trial": 22, "rt": 938, "response": "Beta"}, "23": {"stimulus": 21, "trial": 23, "rt": 2198, "response": "Alpha"}, "46": {"stimulus": 64, "trial": 46, "rt": 702, "response": "Beta"}, "47": {"stimulus": 18, "trial": 47, "rt": 1624, "response": "Beta"}, "44": {"stimulus": 50, "trial": 44, "rt": 668, "response": "Beta"}, "45": {"stimulus": 0, "trial": 45, "rt": 938, "response": "Beta"}, "28": {"stimulus": 19, "trial": 28, "rt": 961, "response": "Beta"}, "29": {"stimulus": 10, "trial": 29, "rt": 624, "response": "Beta"}, "40": {"stimulus": 14, "trial": 40, "rt": 623, "response": "Alpha"}, "41": {"stimulus": 61, "trial": 41, "rt": 713, "response": "Alpha"}, "1": {"stimulus": 15, "trial": 1, "rt": 1738, "response": "Alpha"}, "0": {"stimulus": 42, "trial": 0, "rt": 1691, "response": "Alpha"}, "3": {"stimulus": 33, "trial": 3, "rt": 804, "response": "Alpha"}, "2": {"stimulus": 5, "trial": 2, "rt": 748, "response": "Alpha"}, "5": {"stimulus": 24, "trial": 5, "rt": 780, "response": "Alpha"}, "4": {"stimulus": 46, "trial": 4, "rt": 725, "response": "Beta"}, "7": {"stimulus": 73, "trial": 7, "rt": 758, "response": "Beta"}, "6": {"stimulus": 16, "trial": 6, "rt": 1108, "response": "Alpha"}, "9": {"stimulus": 57, "trial": 9, "rt": 747, "response": "Beta"}, "8": {"stimulus": 44, "trial": 8, "rt": 747, "response": "Alpha"}, "78": {"stimulus": 74, "trial": 78, "rt": 1873, "response": "Beta"}, "51": {"stimulus": 35, "trial": 51, "rt": 905, "response": "Alpha"}, "39": {"stimulus": 30, "trial": 39, "rt": 4257, "response": "Beta"}, "65": {"stimulus": 47, "trial": 65, "rt": 770, "response": "Beta"}, "76": {"stimulus": 40, "trial": 76, "rt": 1378, "response": "Alpha"}, "75": {"stimulus": 68, "trial": 75, "rt": 1096, "response": "Beta"}, "38": {"stimulus": 59, "trial": 38, "rt": 1378, "response": "Beta"}, "73": {"stimulus": 54, "trial": 73, "rt": 703, "response": "Beta"}, "72": {"stimulus": 53, "trial": 72, "rt": 680, "response": "Alpha"}, "71": {"stimulus": 12, "trial": 71, "rt": 939, "response": "Beta"}, "70": {"stimulus": 75, "trial": 70, "rt": 826, "response": "Beta"}, "59": {"stimulus": 39, "trial": 59, "rt": 949, "response": "Alpha"}, "79": {"stimulus": 66, "trial": 79, "rt": 636, "response": "Beta"}, "58": {"stimulus": 3, "trial": 58, "rt": 3290, "response": "Alpha"}, "11": {"stimulus": 52, "trial": 11, "rt": 1287, "response": "Beta"}, "10": {"stimulus": 70, "trial": 10, "rt": 973, "response": "Beta"}, "13": {"stimulus": 62, "trial": 13, "rt": 759, "response": "Beta"}, "12": {"stimulus": 34, "trial": 12, "rt": 771, "response": "Alpha"}, "15": {"stimulus": 45, "trial": 15, "rt": 1029, "response": "Beta"}, "14": {"stimulus": 72, "trial": 14, "rt": 950, "response": "Beta"}, "17": {"stimulus": 36, "trial": 17, "rt": 1152, "response": "Beta"}, "16": {"stimulus": 25, "trial": 16, "rt": 894, "response": "Alpha"}, "19": {"stimulus": 38, "trial": 19, "rt": 883, "response": "Beta"}, "18": {"stimulus": 32, "trial": 18, "rt": 1085, "response": "Alpha"}, "31": {"stimulus": 13, "trial": 31, "rt": 579, "response": "Alpha"}, "30": {"stimulus": 76, "trial": 30, "rt": 1309, "response": "Beta"}, "37": {"stimulus": 17, "trial": 37, "rt": 715, "response": "Beta"}, "36": {"stimulus": 79, "trial": 36, "rt": 1535, "response": "Beta"}, "35": {"stimulus": 41, "trial": 35, "rt": 5518, "response": "Alpha"}, "34": {"stimulus": 43, "trial": 34, "rt": 771, "response": "Beta"}, "33": {"stimulus": 69, "trial": 33, "rt": 1378, "response": "Beta"}, "55": {"stimulus": 63, "trial": 55, "rt": 703, "response": "Beta"}, "74": {"stimulus": 55, "trial": 74, "rt": 759, "response": "Beta"}, "32": {"stimulus": 37, "trial": 32, "rt": 3245, "response": "Beta"}, "57": {"stimulus": 78, "trial": 57, "rt": 1007, "response": "Beta"}, "50": {"stimulus": 56, "trial": 50, "rt": 680, "response": "Beta"}}}