{"generation": {"1": {"stimulus": 75, "trial": 1, "rt": 3798}, "0": {"stimulus": 72, "trial": 0, "rt": 21398}, "3": {"stimulus": 80, "trial": 3, "rt": 2956}, "2": {"stimulus": 77, "trial": 2, "rt": 3210}}, "info": {"finish": 1488822817169, "participant": 162, "exposed": true, "lab": false, "start": 1488822615347, "counterbalance": 5, "condition": "Row", "browser": {"platform": "Linux armv7l", "userAgent": "Mozilla/5.0 (Linux; Android 5.0.2; LG-D415 Build/LRX22G) AppleWebKit/537.36 (KHTML, like Gecko) Chrome/56.0.2924.87 Mobile Safari/537.36"}}, "experiment": {"Paradigm": "TACL", "Stimuli": "Size-Color Squares", "Experiment": "Generating-Categories"}, "observation": {"11": {"stimulus": 14, "trial": 11, "rt": 1173}, "10": {"stimulus": 10, "trial": 10, "rt": 1147}, "1": {"stimulus": 12, "trial": 1, "rt": 1572}, "0": {"stimulus": 16, "trial": 0, "rt": 1783}, "3": {"stimulus": 14, "trial": 3, "rt": 1398}, "2": {"stimulus": 10, "trial": 2, "rt": 1390}, "5": {"stimulus": 10, "trial": 5, "rt": 1353}, "4": {"stimulus": 14, "trial": 4, "rt": 1444}, "7": {"stimulus": 16, "trial": 7, "rt": 1344}, "6": {"stimulus": 12, "trial": 6, "rt": 1515}, "9": {"stimulus": 12, "trial": 9, "rt": 1292}, "8": {"stimulus": 16, "trial": 8, "rt": 1307}}, "generalization": {"56": {"stimulus": 69, "trial": 56, "rt": 859, "response": "Beta"}, "77": {"stimulus": 13, "trial": 77, "rt": 1002, "response": "Alpha"}, "54": {"stimulus": 30, "trial": 54, "rt": 917, "response": "Beta"}, "42": {"stimulus": 17, "trial": 42, "rt": 797, "response": "Alpha"}, "48": {"stimulus": 10, "trial": 48, "rt": 1035, "response": "Beta"}, "43": {"stimulus": 45, "trial": 43, "rt": 886, "response": "Beta"}, "60": {"stimulus": 37, "trial": 60, "rt": 932, "response": "Beta"}, "61": {"stimulus": 0, "trial": 61, "rt": 1219, "response": "Alpha"}, "62": {"stimulus": 9, "trial": 62, "rt": 858, "response": "Alpha"}, "63": {"stimulus": 60, "trial": 63, "rt": 973, "response": "Beta"}, "64": {"stimulus": 2, "trial": 64, "rt": 976, "response": "Alpha"}, "49": {"stimulus": 71, "trial": 49, "rt": 776, "response": "Beta"}, "66": {"stimulus": 14, "trial": 66, "rt": 871, "response": "Alpha"}, "67": {"stimulus": 31, "trial": 67, "rt": 992, "response": "Beta"}, "68": {"stimulus": 12, "trial": 68, "rt": 858, "response": "Alpha"}, "69": {"stimulus": 32, "trial": 69, "rt": 919, "response": "Beta"}, "80": {"stimulus": 38, "trial": 80, "rt": 877, "response": "Beta"}, "52": {"stimulus": 22, "trial": 52, "rt": 1250, "response": "Beta"}, "53": {"stimulus": 24, "trial": 53, "rt": 983, "response": "Beta"}, "24": {"stimulus": 29, "trial": 24, "rt": 890, "response": "Alpha"}, "25": {"stimulus": 16, "trial": 25, "rt": 896, "response": "Alpha"}, "26": {"stimulus": 23, "trial": 26, "rt": 1009, "response": "Alpha"}, "27": {"stimulus": 20, "trial": 27, "rt": 944, "response": "Alpha"}, "20": {"stimulus": 56, "trial": 20, "rt": 743, "response": "Beta"}, "21": {"stimulus": 15, "trial": 21, "rt": 912, "response": "Alpha"}, "22": {"stimulus": 68, "trial": 22, "rt": 797, "response": "Beta"}, "23": {"stimulus": 78, "trial": 23, "rt": 734, "response": "Beta"}, "46": {"stimulus": 8, "trial": 46, "rt": 848, "response": "Alpha"}, "47": {"stimulus": 76, "trial": 47, "rt": 756, "response": "Beta"}, "44": {"stimulus": 26, "trial": 44, "rt": 1025, "response": "Alpha"}, "45": {"stimulus": 25, "trial": 45, "rt": 910, "response": "Alpha"}, "28": {"stimulus": 36, "trial": 28, "rt": 910, "response": "Beta"}, "29": {"stimulus": 67, "trial": 29, "rt": 793, "response": "Beta"}, "40": {"stimulus": 33, "trial": 40, "rt": 802, "response": "Beta"}, "41": {"stimulus": 21, "trial": 41, "rt": 851, "response": "Alpha"}, "1": {"stimulus": 77, "trial": 1, "rt": 1059, "response": "Beta"}, "0": {"stimulus": 41, "trial": 0, "rt": 1387, "response": "Alpha"}, "3": {"stimulus": 43, "trial": 3, "rt": 2051, "response": "Beta"}, "2": {"stimulus": 1, "trial": 2, "rt": 3030, "response": "Beta"}, "5": {"stimulus": 53, "trial": 5, "rt": 980, "response": "Beta"}, "4": {"stimulus": 3, "trial": 4, "rt": 974, "response": "Alpha"}, "7": {"stimulus": 18, "trial": 7, "rt": 972, "response": "Alpha"}, "6": {"stimulus": 52, "trial": 6, "rt": 1016, "response": "Beta"}, "9": {"stimulus": 54, "trial": 9, "rt": 1024, "response": "Beta"}, "8": {"stimulus": 19, "trial": 8, "rt": 965, "response": "Alpha"}, "78": {"stimulus": 57, "trial": 78, "rt": 922, "response": "Beta"}, "51": {"stimulus": 64, "trial": 51, "rt": 823, "response": "Beta"}, "39": {"stimulus": 46, "trial": 39, "rt": 869, "response": "Beta"}, "65": {"stimulus": 42, "trial": 65, "rt": 908, "response": "Beta"}, "76": {"stimulus": 44, "trial": 76, "rt": 891, "response": "Beta"}, "75": {"stimulus": 62, "trial": 75, "rt": 829, "response": "Beta"}, "38": {"stimulus": 55, "trial": 38, "rt": 813, "response": "Beta"}, "73": {"stimulus": 59, "trial": 73, "rt": 868, "response": "Beta"}, "72": {"stimulus": 7, "trial": 72, "rt": 878, "response": "Alpha"}, "71": {"stimulus": 65, "trial": 71, "rt": 865, "response": "Beta"}, "70": {"stimulus": 49, "trial": 70, "rt": 845, "response": "Alpha"}, "59": {"stimulus": 40, "trial": 59, "rt": 1038, "response": "Beta"}, "79": {"stimulus": 11, "trial": 79, "rt": 934, "response": "Alpha"}, "58": {"stimulus": 61, "trial": 58, "rt": 833, "response": "Beta"}, "11": {"stimulus": 74, "trial": 11, "rt": 937, "response": "Beta"}, "10": {"stimulus": 66, "trial": 10, "rt": 977, "response": "Beta"}, "13": {"stimulus": 50, "trial": 13, "rt": 806, "response": "Beta"}, "12": {"stimulus": 58, "trial": 12, "rt": 845, "response": "Beta"}, "15": {"stimulus": 70, "trial": 15, "rt": 818, "response": "Beta"}, "14": {"stimulus": 51, "trial": 14, "rt": 872, "response": "Beta"}, "17": {"stimulus": 39, "trial": 17, "rt": 843, "response": "Beta"}, "16": {"stimulus": 5, "trial": 16, "rt": 949, "response": "Alpha"}, "19": {"stimulus": 63, "trial": 19, "rt": 906, "response": "Beta"}, "18": {"stimulus": 48, "trial": 18, "rt": 916, "response": "Beta"}, "31": {"stimulus": 73, "trial": 31, "rt": 944, "response": "Beta"}, "30": {"stimulus": 47, "trial": 30, "rt": 892, "response": "Beta"}, "37": {"stimulus": 75, "trial": 37, "rt": 859, "response": "Beta"}, "36": {"stimulus": 72, "trial": 36, "rt": 877, "response": "Beta"}, "35": {"stimulus": 27, "trial": 35, "rt": 1119, "response": "Beta"}, "34": {"stimulus": 80, "trial": 34, "rt": 789, "response": "Beta"}, "33": {"stimulus": 79, "trial": 33, "rt": 813, "response": "Beta"}, "55": {"stimulus": 6, "trial": 55, "rt": 1256, "response": "Alpha"}, "74": {"stimulus": 35, "trial": 74, "rt": 1041, "response": "Beta"}, "32": {"stimulus": 34, "trial": 32, "rt": 998, "response": "Alpha"}, "57": {"stimulus": 28, "trial": 57, "rt": 1022, "response": "Beta"}, "50": {"stimulus": 4, "trial": 50, "rt": 876, "response": "Alpha"}}}