{"generation": {"1": {"stimulus": 50, "trial": 1, "rt": 5694}, "0": {"stimulus": 44, "trial": 0, "rt": 11679}, "3": {"stimulus": 54, "trial": 3, "rt": 5382}, "2": {"stimulus": 46, "trial": 2, "rt": 5151}}, "info": {"finish": 1488822935036, "participant": 163, "exposed": true, "lab": false, "start": 1488822636917, "counterbalance": 2, "condition": "XOR", "browser": {"platform": "Win32", "userAgent": "Mozilla/5.0 (Windows NT 6.1; WOW64; rv:51.0) Gecko/20100101 Firefox/51.0"}}, "experiment": {"Paradigm": "TACL", "Stimuli": "Size-Color Squares", "Experiment": "Generating-Categories"}, "observation": {"11": {"stimulus": 80, "trial": 11, "rt": 2142}, "10": {"stimulus": 10, "trial": 10, "rt": 2341}, "1": {"stimulus": 0, "trial": 1, "rt": 7076}, "0": {"stimulus": 70, "trial": 0, "rt": 2627}, "3": {"stimulus": 10, "trial": 3, "rt": 2798}, "2": {"stimulus": 80, "trial": 2, "rt": 23070}, "5": {"stimulus": 10, "trial": 5, "rt": 2723}, "4": {"stimulus": 0, "trial": 4, "rt": 3690}, "7": {"stimulus": 70, "trial": 7, "rt": 11814}, "6": {"stimulus": 80, "trial": 6, "rt": 2514}, "9": {"stimulus": 0, "trial": 9, "rt": 1824}, "8": {"stimulus": 70, "trial": 8, "rt": 2171}}, "generalization": {"56": {"stimulus": 2, "trial": 56, "rt": 1017, "response": "Alpha"}, "77": {"stimulus": 73, "trial": 77, "rt": 551, "response": "Alpha"}, "54": {"stimulus": 27, "trial": 54, "rt": 720, "response": "Beta"}, "42": {"stimulus": 50, "trial": 42, "rt": 840, "response": "Beta"}, "48": {"stimulus": 21, "trial": 48, "rt": 876, "response": "Alpha"}, "43": {"stimulus": 75, "trial": 43, "rt": 871, "response": "Alpha"}, "60": {"stimulus": 42, "trial": 60, "rt": 865, "response": "Beta"}, "61": {"stimulus": 25, "trial": 61, "rt": 943, "response": "Alpha"}, "62": {"stimulus": 78, "trial": 62, "rt": 663, "response": "Alpha"}, "63": {"stimulus": 60, "trial": 63, "rt": 517, "response": "Alpha"}, "64": {"stimulus": 26, "trial": 64, "rt": 783, "response": "Beta"}, "49": {"stimulus": 11, "trial": 49, "rt": 1022, "response": "Alpha"}, "66": {"stimulus": 63, "trial": 66, "rt": 1505, "response": "Alpha"}, "67": {"stimulus": 68, "trial": 67, "rt": 686, "response": "Alpha"}, "68": {"stimulus": 5, "trial": 68, "rt": 723, "response": "Alpha"}, "69": {"stimulus": 70, "trial": 69, "rt": 783, "response": "Alpha"}, "80": {"stimulus": 28, "trial": 80, "rt": 892, "response": "Beta"}, "52": {"stimulus": 23, "trial": 52, "rt": 694, "response": "Beta"}, "53": {"stimulus": 1, "trial": 53, "rt": 666, "response": "Alpha"}, "24": {"stimulus": 43, "trial": 24, "rt": 1240, "response": "Beta"}, "25": {"stimulus": 8, "trial": 25, "rt": 751, "response": "Alpha"}, "26": {"stimulus": 47, "trial": 26, "rt": 768, "response": "Beta"}, "27": {"stimulus": 71, "trial": 27, "rt": 741, "response": "Alpha"}, "20": {"stimulus": 31, "trial": 20, "rt": 706, "response": "Alpha"}, "21": {"stimulus": 72, "trial": 21, "rt": 830, "response": "Alpha"}, "22": {"stimulus": 46, "trial": 22, "rt": 1341, "response": "Beta"}, "23": {"stimulus": 17, "trial": 23, "rt": 1185, "response": "Alpha"}, "46": {"stimulus": 66, "trial": 46, "rt": 770, "response": "Alpha"}, "47": {"stimulus": 24, "trial": 47, "rt": 1659, "response": "Alpha"}, "44": {"stimulus": 39, "trial": 44, "rt": 858, "response": "Beta"}, "45": {"stimulus": 34, "trial": 45, "rt": 799, "response": "Alpha"}, "28": {"stimulus": 79, "trial": 28, "rt": 576, "response": "Alpha"}, "29": {"stimulus": 35, "trial": 29, "rt": 970, "response": "Beta"}, "40": {"stimulus": 80, "trial": 40, "rt": 1182, "response": "Alpha"}, "41": {"stimulus": 45, "trial": 41, "rt": 1534, "response": "Beta"}, "1": {"stimulus": 41, "trial": 1, "rt": 6616, "response": "Beta"}, "0": {"stimulus": 62, "trial": 0, "rt": 10204, "response": "Alpha"}, "3": {"stimulus": 13, "trial": 3, "rt": 4277, "response": "Alpha"}, "2": {"stimulus": 20, "trial": 2, "rt": 6331, "response": "Beta"}, "5": {"stimulus": 36, "trial": 5, "rt": 4190, "response": "Beta"}, "4": {"stimulus": 57, "trial": 4, "rt": 1784, "response": "Beta"}, "7": {"stimulus": 12, "trial": 7, "rt": 3450, "response": "Alpha"}, "6": {"stimulus": 0, "trial": 6, "rt": 1615, "response": "Alpha"}, "9": {"stimulus": 51, "trial": 9, "rt": 4547, "response": "Beta"}, "8": {"stimulus": 55, "trial": 8, "rt": 6294, "response": "Alpha"}, "78": {"stimulus": 64, "trial": 78, "rt": 518, "response": "Alpha"}, "51": {"stimulus": 4, "trial": 51, "rt": 654, "response": "Alpha"}, "39": {"stimulus": 54, "trial": 39, "rt": 1148, "response": "Alpha"}, "65": {"stimulus": 3, "trial": 65, "rt": 1188, "response": "Alpha"}, "76": {"stimulus": 56, "trial": 76, "rt": 935, "response": "Alpha"}, "75": {"stimulus": 16, "trial": 75, "rt": 723, "response": "Beta"}, "38": {"stimulus": 69, "trial": 38, "rt": 546, "response": "Alpha"}, "73": {"stimulus": 6, "trial": 73, "rt": 700, "response": "Alpha"}, "72": {"stimulus": 9, "trial": 72, "rt": 1159, "response": "Alpha"}, "71": {"stimulus": 33, "trial": 71, "rt": 1065, "response": "Beta"}, "70": {"stimulus": 49, "trial": 70, "rt": 972, "response": "Beta"}, "59": {"stimulus": 18, "trial": 59, "rt": 888, "response": "Beta"}, "79": {"stimulus": 76, "trial": 79, "rt": 511, "response": "Alpha"}, "58": {"stimulus": 53, "trial": 58, "rt": 1164, "response": "Beta"}, "11": {"stimulus": 74, "trial": 11, "rt": 1133, "response": "Alpha"}, "10": {"stimulus": 30, "trial": 10, "rt": 1302, "response": "Beta"}, "13": {"stimulus": 32, "trial": 13, "rt": 1201, "response": "Alpha"}, "12": {"stimulus": 59, "trial": 12, "rt": 1040, "response": "Beta"}, "15": {"stimulus": 65, "trial": 15, "rt": 1590, "response": "Alpha"}, "14": {"stimulus": 19, "trial": 14, "rt": 1273, "response": "Alpha"}, "17": {"stimulus": 7, "trial": 17, "rt": 1862, "response": "Alpha"}, "16": {"stimulus": 61, "trial": 16, "rt": 1098, "response": "Beta"}, "19": {"stimulus": 44, "trial": 19, "rt": 840, "response": "Alpha"}, "18": {"stimulus": 77, "trial": 18, "rt": 1035, "response": "Beta"}, "31": {"stimulus": 14, "trial": 31, "rt": 510, "response": "Alpha"}, "30": {"stimulus": 52, "trial": 30, "rt": 989, "response": "Beta"}, "37": {"stimulus": 67, "trial": 37, "rt": 1117, "response": "Alpha"}, "36": {"stimulus": 10, "trial": 36, "rt": 597, "response": "Alpha"}, "35": {"stimulus": 38, "trial": 35, "rt": 1094, "response": "Beta"}, "34": {"stimulus": 40, "trial": 34, "rt": 1638, "response": "Beta"}, "33": {"stimulus": 37, "trial": 33, "rt": 2540, "response": "Beta"}, "55": {"stimulus": 48, "trial": 55, "rt": 1013, "response": "Beta"}, "74": {"stimulus": 15, "trial": 74, "rt": 495, "response": "Alpha"}, "32": {"stimulus": 58, "trial": 32, "rt": 544, "response": "Alpha"}, "57": {"stimulus": 22, "trial": 57, "rt": 1008, "response": "Beta"}, "50": {"stimulus": 29, "trial": 50, "rt": 813, "response": "Beta"}}}