{"generation": {"1": {"stimulus": 55, "trial": 1, "rt": 6698}, "0": {"stimulus": 11, "trial": 0, "rt": 6187}, "3": {"stimulus": 19, "trial": 3, "rt": 10908}, "2": {"stimulus": 47, "trial": 2, "rt": 2867}}, "info": {"finish": 1488823752921, "participant": 164, "exposed": true, "lab": false, "start": 1488822633644, "counterbalance": 3, "condition": "XOR", "browser": {"platform": "Win32", "userAgent": "Mozilla/5.0 (Windows NT 10.0; Win64; x64) AppleWebKit/537.36 (KHTML, like Gecko) Chrome/56.0.2924.87 Safari/537.36"}}, "experiment": {"Paradigm": "TACL", "Stimuli": "Size-Color Squares", "Experiment": "Generating-Categories"}, "observation": {"11": {"stimulus": 70, "trial": 11, "rt": 97670}, "10": {"stimulus": 0, "trial": 10, "rt": 7902}, "1": {"stimulus": 0, "trial": 1, "rt": 2128}, "0": {"stimulus": 80, "trial": 0, "rt": 3750}, "3": {"stimulus": 70, "trial": 3, "rt": 1538}, "2": {"stimulus": 10, "trial": 2, "rt": 1302}, "5": {"stimulus": 80, "trial": 5, "rt": 1301}, "4": {"stimulus": 10, "trial": 4, "rt": 1095}, "7": {"stimulus": 70, "trial": 7, "rt": 1431}, "6": {"stimulus": 0, "trial": 6, "rt": 987}, "9": {"stimulus": 80, "trial": 9, "rt": 1903}, "8": {"stimulus": 10, "trial": 8, "rt": 7553}}, "generalization": {"56": {"stimulus": 67, "trial": 56, "rt": 966, "response": "Alpha"}, "77": {"stimulus": 6, "trial": 77, "rt": 20711, "response": "Beta"}, "54": {"stimulus": 49, "trial": 54, "rt": 1997, "response": "Alpha"}, "42": {"stimulus": 52, "trial": 42, "rt": 397, "response": "Alpha"}, "48": {"stimulus": 46, "trial": 48, "rt": 1560, "response": "Alpha"}, "43": {"stimulus": 33, "trial": 43, "rt": 676, "response": "Beta"}, "60": {"stimulus": 40, "trial": 60, "rt": 645, "response": "Alpha"}, "61": {"stimulus": 70, "trial": 61, "rt": 648, "response": "Beta"}, "62": {"stimulus": 29, "trial": 62, "rt": 760, "response": "Beta"}, "63": {"stimulus": 71, "trial": 63, "rt": 896, "response": "Beta"}, "64": {"stimulus": 73, "trial": 64, "rt": 1888, "response": "Beta"}, "49": {"stimulus": 16, "trial": 49, "rt": 1860, "response": "Beta"}, "66": {"stimulus": 53, "trial": 66, "rt": 775, "response": "Beta"}, "67": {"stimulus": 32, "trial": 67, "rt": 742, "response": "Alpha"}, "68": {"stimulus": 45, "trial": 68, "rt": 1176, "response": "Alpha"}, "69": {"stimulus": 4, "trial": 69, "rt": 1131, "response": "Beta"}, "80": {"stimulus": 65, "trial": 80, "rt": 1138, "response": "Alpha"}, "52": {"stimulus": 2, "trial": 52, "rt": 1742, "response": "Alpha"}, "53": {"stimulus": 20, "trial": 53, "rt": 6093, "response": "Alpha"}, "24": {"stimulus": 41, "trial": 24, "rt": 1975, "response": "Alpha"}, "25": {"stimulus": 30, "trial": 25, "rt": 878, "response": "Alpha"}, "26": {"stimulus": 3, "trial": 26, "rt": 3357, "response": "Alpha"}, "27": {"stimulus": 31, "trial": 27, "rt": 1051, "response": "Beta"}, "20": {"stimulus": 37, "trial": 20, "rt": 1430, "response": "Alpha"}, "21": {"stimulus": 7, "trial": 21, "rt": 626, "response": "Beta"}, "22": {"stimulus": 64, "trial": 22, "rt": 1092, "response": "Alpha"}, "23": {"stimulus": 35, "trial": 23, "rt": 10989, "response": "Alpha"}, "46": {"stimulus": 55, "trial": 46, "rt": 1088, "response": "Alpha"}, "47": {"stimulus": 58, "trial": 47, "rt": 4727, "response": "Alpha"}, "44": {"stimulus": 18, "trial": 44, "rt": 5278, "response": "Alpha"}, "45": {"stimulus": 80, "trial": 45, "rt": 1161, "response": "Beta"}, "28": {"stimulus": 10, "trial": 28, "rt": 1162, "response": "Alpha"}, "29": {"stimulus": 77, "trial": 29, "rt": 115, "response": "Alpha"}, "40": {"stimulus": 36, "trial": 40, "rt": 428, "response": "Alpha"}, "41": {"stimulus": 54, "trial": 41, "rt": 304, "response": "Alpha"}, "1": {"stimulus": 5, "trial": 1, "rt": 2029, "response": "Alpha"}, "0": {"stimulus": 60, "trial": 0, "rt": 2232, "response": "Alpha"}, "3": {"stimulus": 22, "trial": 3, "rt": 905, "response": "Alpha"}, "2": {"stimulus": 17, "trial": 2, "rt": 1079, "response": "Beta"}, "5": {"stimulus": 0, "trial": 5, "rt": 986, "response": "Alpha"}, "4": {"stimulus": 21, "trial": 4, "rt": 1204, "response": "Alpha"}, "7": {"stimulus": 59, "trial": 7, "rt": 1360, "response": "Beta"}, "6": {"stimulus": 11, "trial": 6, "rt": 2153, "response": "Alpha"}, "9": {"stimulus": 1, "trial": 9, "rt": 975, "response": "Alpha"}, "8": {"stimulus": 14, "trial": 8, "rt": 1513, "response": "Alpha"}, "78": {"stimulus": 51, "trial": 78, "rt": 16840, "response": "Beta"}, "51": {"stimulus": 57, "trial": 51, "rt": 3774, "response": "Beta"}, "39": {"stimulus": 26, "trial": 39, "rt": 692, "response": "Beta"}, "65": {"stimulus": 23, "trial": 65, "rt": 738, "response": "Alpha"}, "76": {"stimulus": 75, "trial": 76, "rt": 941, "response": "Alpha"}, "75": {"stimulus": 69, "trial": 75, "rt": 1024, "response": "Alpha"}, "38": {"stimulus": 72, "trial": 38, "rt": 928, "response": "Alpha"}, "73": {"stimulus": 50, "trial": 73, "rt": 3351, "response": "Beta"}, "72": {"stimulus": 48, "trial": 72, "rt": 721, "response": "Alpha"}, "71": {"stimulus": 25, "trial": 71, "rt": 724, "response": "Beta"}, "70": {"stimulus": 15, "trial": 70, "rt": 1640, "response": "Beta"}, "59": {"stimulus": 38, "trial": 59, "rt": 2498, "response": "Beta"}, "79": {"stimulus": 8, "trial": 79, "rt": 1719, "response": "Beta"}, "58": {"stimulus": 66, "trial": 58, "rt": 987, "response": "Alpha"}, "11": {"stimulus": 19, "trial": 11, "rt": 1098, "response": "Alpha"}, "10": {"stimulus": 9, "trial": 10, "rt": 791, "response": "Alpha"}, "13": {"stimulus": 76, "trial": 13, "rt": 667, "response": "Alpha"}, "12": {"stimulus": 39, "trial": 12, "rt": 770, "response": "Alpha"}, "15": {"stimulus": 56, "trial": 15, "rt": 490, "response": "Alpha"}, "14": {"stimulus": 61, "trial": 14, "rt": 646, "response": "Beta"}, "17": {"stimulus": 28, "trial": 17, "rt": 1028, "response": "Alpha"}, "16": {"stimulus": 27, "trial": 16, "rt": 657, "response": "Alpha"}, "19": {"stimulus": 63, "trial": 19, "rt": 936, "response": "Alpha"}, "18": {"stimulus": 43, "trial": 18, "rt": 605, "response": "Beta"}, "31": {"stimulus": 68, "trial": 31, "rt": 502, "response": "Beta"}, "30": {"stimulus": 74, "trial": 30, "rt": 1087, "response": "Alpha"}, "37": {"stimulus": 24, "trial": 37, "rt": 738, "response": "Alpha"}, "36": {"stimulus": 47, "trial": 36, "rt": 2667, "response": "Alpha"}, "35": {"stimulus": 44, "trial": 35, "rt": 2101, "response": "Beta"}, "34": {"stimulus": 62, "trial": 34, "rt": 1280, "response": "Beta"}, "33": {"stimulus": 79, "trial": 33, "rt": 918, "response": "Beta"}, "55": {"stimulus": 34, "trial": 55, "rt": 726, "response": "Beta"}, "74": {"stimulus": 78, "trial": 74, "rt": 1280, "response": "Alpha"}, "32": {"stimulus": 13, "trial": 32, "rt": 801, "response": "Beta"}, "57": {"stimulus": 12, "trial": 57, "rt": 1176, "response": "Beta"}, "50": {"stimulus": 42, "trial": 50, "rt": 7330, "response": "Beta"}}}