{"generation": {"1": {"stimulus": 56, "trial": 1, "rt": 9292}, "0": {"stimulus": 37, "trial": 0, "rt": 17153}, "3": {"stimulus": 47, "trial": 3, "rt": 6459}, "2": {"stimulus": 57, "trial": 2, "rt": 7065}}, "info": {"finish": 1488822942207, "participant": 167, "exposed": true, "lab": false, "start": 1488822634670, "counterbalance": 4, "condition": "Cluster", "browser": {"platform": "Win32", "userAgent": "Mozilla/5.0 (Windows NT 6.1) AppleWebKit/537.36 (KHTML, like Gecko) Chrome/55.0.2883.87 Safari/537.36"}}, "experiment": {"Paradigm": "TACL", "Stimuli": "Size-Color Squares", "Experiment": "Generating-Categories"}, "observation": {"11": {"stimulus": 32, "trial": 11, "rt": 2007}, "10": {"stimulus": 34, "trial": 10, "rt": 1693}, "1": {"stimulus": 14, "trial": 1, "rt": 5784}, "0": {"stimulus": 32, "trial": 0, "rt": 4848}, "3": {"stimulus": 34, "trial": 3, "rt": 3015}, "2": {"stimulus": 16, "trial": 2, "rt": 3492}, "5": {"stimulus": 16, "trial": 5, "rt": 3791}, "4": {"stimulus": 14, "trial": 4, "rt": 2240}, "7": {"stimulus": 34, "trial": 7, "rt": 2884}, "6": {"stimulus": 32, "trial": 6, "rt": 2221}, "9": {"stimulus": 16, "trial": 9, "rt": 2536}, "8": {"stimulus": 14, "trial": 8, "rt": 3339}}, "generalization": {"56": {"stimulus": 75, "trial": 56, "rt": 1208, "response": "Beta"}, "77": {"stimulus": 24, "trial": 77, "rt": 1687, "response": "Beta"}, "54": {"stimulus": 20, "trial": 54, "rt": 827, "response": "Beta"}, "42": {"stimulus": 69, "trial": 42, "rt": 2836, "response": "Alpha"}, "48": {"stimulus": 6, "trial": 48, "rt": 4931, "response": "Beta"}, "43": {"stimulus": 13, "trial": 43, "rt": 1381, "response": "Beta"}, "60": {"stimulus": 7, "trial": 60, "rt": 1296, "response": "Alpha"}, "61": {"stimulus": 55, "trial": 61, "rt": 909, "response": "Beta"}, "62": {"stimulus": 45, "trial": 62, "rt": 828, "response": "Beta"}, "63": {"stimulus": 21, "trial": 63, "rt": 1026, "response": "Beta"}, "64": {"stimulus": 4, "trial": 64, "rt": 1066, "response": "Beta"}, "49": {"stimulus": 67, "trial": 49, "rt": 1050, "response": "Beta"}, "66": {"stimulus": 44, "trial": 66, "rt": 739, "response": "Alpha"}, "67": {"stimulus": 12, "trial": 67, "rt": 1305, "response": "Beta"}, "68": {"stimulus": 32, "trial": 68, "rt": 1376, "response": "Beta"}, "69": {"stimulus": 1, "trial": 69, "rt": 840, "response": "Beta"}, "80": {"stimulus": 16, "trial": 80, "rt": 1724, "response": "Alpha"}, "52": {"stimulus": 49, "trial": 52, "rt": 1460, "response": "Beta"}, "53": {"stimulus": 66, "trial": 53, "rt": 1149, "response": "Beta"}, "24": {"stimulus": 76, "trial": 24, "rt": 1859, "response": "Beta"}, "25": {"stimulus": 50, "trial": 25, "rt": 1227, "response": "Beta"}, "26": {"stimulus": 53, "trial": 26, "rt": 2666, "response": "Alpha"}, "27": {"stimulus": 15, "trial": 27, "rt": 1728, "response": "Beta"}, "20": {"stimulus": 10, "trial": 20, "rt": 1044, "response": "Beta"}, "21": {"stimulus": 30, "trial": 21, "rt": 1065, "response": "Beta"}, "22": {"stimulus": 40, "trial": 22, "rt": 1443, "response": "Beta"}, "23": {"stimulus": 9, "trial": 23, "rt": 1011, "response": "Beta"}, "46": {"stimulus": 22, "trial": 46, "rt": 1075, "response": "Beta"}, "47": {"stimulus": 36, "trial": 47, "rt": 824, "response": "Beta"}, "44": {"stimulus": 78, "trial": 44, "rt": 1959, "response": "Alpha"}, "45": {"stimulus": 29, "trial": 45, "rt": 1082, "response": "Beta"}, "28": {"stimulus": 8, "trial": 28, "rt": 971, "response": "Beta"}, "29": {"stimulus": 70, "trial": 29, "rt": 2934, "response": "Beta"}, "40": {"stimulus": 11, "trial": 40, "rt": 928, "response": "Beta"}, "41": {"stimulus": 3, "trial": 41, "rt": 981, "response": "Beta"}, "1": {"stimulus": 61, "trial": 1, "rt": 1294, "response": "Alpha"}, "0": {"stimulus": 37, "trial": 0, "rt": 1614, "response": "Beta"}, "3": {"stimulus": 25, "trial": 3, "rt": 1163, "response": "Alpha"}, "2": {"stimulus": 41, "trial": 2, "rt": 1907, "response": "Alpha"}, "5": {"stimulus": 19, "trial": 5, "rt": 1719, "response": "Beta"}, "4": {"stimulus": 5, "trial": 4, "rt": 1951, "response": "Beta"}, "7": {"stimulus": 48, "trial": 7, "rt": 1322, "response": "Beta"}, "6": {"stimulus": 52, "trial": 6, "rt": 1518, "response": "Beta"}, "9": {"stimulus": 34, "trial": 9, "rt": 1304, "response": "Alpha"}, "8": {"stimulus": 35, "trial": 8, "rt": 1108, "response": "Alpha"}, "78": {"stimulus": 62, "trial": 78, "rt": 1229, "response": "Alpha"}, "51": {"stimulus": 71, "trial": 51, "rt": 993, "response": "Alpha"}, "39": {"stimulus": 42, "trial": 39, "rt": 1455, "response": "Beta"}, "65": {"stimulus": 80, "trial": 65, "rt": 1025, "response": "Alpha"}, "76": {"stimulus": 23, "trial": 76, "rt": 1344, "response": "Beta"}, "75": {"stimulus": 17, "trial": 75, "rt": 923, "response": "Alpha"}, "38": {"stimulus": 0, "trial": 38, "rt": 1075, "response": "Beta"}, "73": {"stimulus": 46, "trial": 73, "rt": 642, "response": "Beta"}, "72": {"stimulus": 73, "trial": 72, "rt": 831, "response": "Beta"}, "71": {"stimulus": 58, "trial": 71, "rt": 2114, "response": "Beta"}, "70": {"stimulus": 28, "trial": 70, "rt": 964, "response": "Beta"}, "59": {"stimulus": 2, "trial": 59, "rt": 1303, "response": "Beta"}, "79": {"stimulus": 54, "trial": 79, "rt": 1093, "response": "Beta"}, "58": {"stimulus": 56, "trial": 58, "rt": 1130, "response": "Beta"}, "11": {"stimulus": 26, "trial": 11, "rt": 2561, "response": "Alpha"}, "10": {"stimulus": 59, "trial": 10, "rt": 1344, "response": "Beta"}, "13": {"stimulus": 18, "trial": 13, "rt": 867, "response": "Beta"}, "12": {"stimulus": 63, "trial": 12, "rt": 957, "response": "Beta"}, "15": {"stimulus": 38, "trial": 15, "rt": 1494, "response": "Beta"}, "14": {"stimulus": 72, "trial": 14, "rt": 878, "response": "Beta"}, "17": {"stimulus": 65, "trial": 17, "rt": 1055, "response": "Beta"}, "16": {"stimulus": 27, "trial": 16, "rt": 1646, "response": "Beta"}, "19": {"stimulus": 39, "trial": 19, "rt": 2444, "response": "Beta"}, "18": {"stimulus": 64, "trial": 18, "rt": 1031, "response": "Beta"}, "31": {"stimulus": 79, "trial": 31, "rt": 1338, "response": "Beta"}, "30": {"stimulus": 14, "trial": 30, "rt": 1558, "response": "Beta"}, "37": {"stimulus": 57, "trial": 37, "rt": 814, "response": "Beta"}, "36": {"stimulus": 74, "trial": 36, "rt": 915, "response": "Beta"}, "35": {"stimulus": 77, "trial": 35, "rt": 1967, "response": "Beta"}, "34": {"stimulus": 43, "trial": 34, "rt": 1908, "response": "Beta"}, "33": {"stimulus": 51, "trial": 33, "rt": 1132, "response": "Beta"}, "55": {"stimulus": 31, "trial": 55, "rt": 1429, "response": "Beta"}, "74": {"stimulus": 60, "trial": 74, "rt": 1624, "response": "Beta"}, "32": {"stimulus": 47, "trial": 32, "rt": 871, "response": "Beta"}, "57": {"stimulus": 68, "trial": 57, "rt": 1177, "response": "Beta"}, "50": {"stimulus": 33, "trial": 50, "rt": 2034, "response": "Alpha"}}}