{"generation": {"1": {"stimulus": 62, "trial": 1, "rt": 5331}, "0": {"stimulus": 71, "trial": 0, "rt": 9282}, "3": {"stimulus": 36, "trial": 3, "rt": 3419}, "2": {"stimulus": 8, "trial": 2, "rt": 3491}}, "info": {"finish": 1488822838425, "participant": 168, "exposed": true, "lab": false, "start": 1488822659878, "counterbalance": 4, "condition": "Row", "browser": {"platform": "Win32", "userAgent": "Mozilla/5.0 (Windows NT 10.0) AppleWebKit/537.36 (KHTML, like Gecko) Chrome/56.0.2924.87 Safari/537.36"}}, "experiment": {"Paradigm": "TACL", "Stimuli": "Size-Color Squares", "Experiment": "Generating-Categories"}, "observation": {"11": {"stimulus": 12, "trial": 11, "rt": 985}, "10": {"stimulus": 16, "trial": 10, "rt": 955}, "1": {"stimulus": 14, "trial": 1, "rt": 1291}, "0": {"stimulus": 12, "trial": 0, "rt": 2024}, "3": {"stimulus": 16, "trial": 3, "rt": 1075}, "2": {"stimulus": 10, "trial": 2, "rt": 1131}, "5": {"stimulus": 16, "trial": 5, "rt": 1035}, "4": {"stimulus": 12, "trial": 4, "rt": 1051}, "7": {"stimulus": 10, "trial": 7, "rt": 1027}, "6": {"stimulus": 14, "trial": 6, "rt": 1011}, "9": {"stimulus": 10, "trial": 9, "rt": 899}, "8": {"stimulus": 14, "trial": 8, "rt": 971}}, "generalization": {"56": {"stimulus": 64, "trial": 56, "rt": 659, "response": "Alpha"}, "77": {"stimulus": 32, "trial": 77, "rt": 691, "response": "Beta"}, "54": {"stimulus": 11, "trial": 54, "rt": 474, "response": "Alpha"}, "42": {"stimulus": 67, "trial": 42, "rt": 763, "response": "Alpha"}, "48": {"stimulus": 3, "trial": 48, "rt": 955, "response": "Alpha"}, "43": {"stimulus": 57, "trial": 43, "rt": 427, "response": "Alpha"}, "60": {"stimulus": 39, "trial": 60, "rt": 731, "response": "Alpha"}, "61": {"stimulus": 30, "trial": 61, "rt": 323, "response": "Alpha"}, "62": {"stimulus": 28, "trial": 62, "rt": 419, "response": "Alpha"}, "63": {"stimulus": 71, "trial": 63, "rt": 955, "response": "Beta"}, "64": {"stimulus": 31, "trial": 64, "rt": 980, "response": "Alpha"}, "49": {"stimulus": 24, "trial": 49, "rt": 1795, "response": "Alpha"}, "66": {"stimulus": 70, "trial": 66, "rt": 835, "response": "Beta"}, "67": {"stimulus": 12, "trial": 67, "rt": 539, "response": "Alpha"}, "68": {"stimulus": 45, "trial": 68, "rt": 731, "response": "Beta"}, "69": {"stimulus": 58, "trial": 69, "rt": 676, "response": "Alpha"}, "80": {"stimulus": 44, "trial": 80, "rt": 826, "response": "Beta"}, "52": {"stimulus": 7, "trial": 52, "rt": 411, "response": "Alpha"}, "53": {"stimulus": 19, "trial": 53, "rt": 594, "response": "Alpha"}, "24": {"stimulus": 55, "trial": 24, "rt": 1058, "response": "Beta"}, "25": {"stimulus": 18, "trial": 25, "rt": 739, "response": "Alpha"}, "26": {"stimulus": 75, "trial": 26, "rt": 755, "response": "Alpha"}, "27": {"stimulus": 42, "trial": 27, "rt": 739, "response": "Alpha"}, "20": {"stimulus": 25, "trial": 20, "rt": 1026, "response": "Beta"}, "21": {"stimulus": 2, "trial": 21, "rt": 739, "response": "Beta"}, "22": {"stimulus": 15, "trial": 22, "rt": 2500, "response": "Alpha"}, "23": {"stimulus": 52, "trial": 23, "rt": 1043, "response": "Beta"}, "46": {"stimulus": 13, "trial": 46, "rt": 619, "response": "Alpha"}, "47": {"stimulus": 61, "trial": 47, "rt": 1074, "response": "Beta"}, "44": {"stimulus": 21, "trial": 44, "rt": 459, "response": "Alpha"}, "45": {"stimulus": 46, "trial": 45, "rt": 355, "response": "Alpha"}, "28": {"stimulus": 53, "trial": 28, "rt": 835, "response": "Beta"}, "29": {"stimulus": 65, "trial": 29, "rt": 1219, "response": "Alpha"}, "40": {"stimulus": 4, "trial": 40, "rt": 555, "response": "Alpha"}, "41": {"stimulus": 1, "trial": 41, "rt": 811, "response": "Beta"}, "1": {"stimulus": 51, "trial": 1, "rt": 1074, "response": "Alpha"}, "0": {"stimulus": 33, "trial": 0, "rt": 1850, "response": "Alpha"}, "3": {"stimulus": 23, "trial": 3, "rt": 1355, "response": "Alpha"}, "2": {"stimulus": 27, "trial": 2, "rt": 1187, "response": "Beta"}, "5": {"stimulus": 29, "trial": 5, "rt": 762, "response": "Alpha"}, "4": {"stimulus": 6, "trial": 4, "rt": 1003, "response": "Beta"}, "7": {"stimulus": 49, "trial": 7, "rt": 1268, "response": "Alpha"}, "6": {"stimulus": 38, "trial": 6, "rt": 459, "response": "Alpha"}, "9": {"stimulus": 26, "trial": 9, "rt": 410, "response": "Alpha"}, "8": {"stimulus": 68, "trial": 8, "rt": 1306, "response": "Beta"}, "78": {"stimulus": 10, "trial": 78, "rt": 490, "response": "Alpha"}, "51": {"stimulus": 37, "trial": 51, "rt": 771, "response": "Beta"}, "39": {"stimulus": 59, "trial": 39, "rt": 508, "response": "Alpha"}, "65": {"stimulus": 56, "trial": 65, "rt": 404, "response": "Alpha"}, "76": {"stimulus": 34, "trial": 76, "rt": 243, "response": "Alpha"}, "75": {"stimulus": 47, "trial": 75, "rt": 476, "response": "Alpha"}, "38": {"stimulus": 77, "trial": 38, "rt": 844, "response": "Alpha"}, "73": {"stimulus": 62, "trial": 73, "rt": 356, "response": "Alpha"}, "72": {"stimulus": 36, "trial": 72, "rt": 276, "response": "Alpha"}, "71": {"stimulus": 76, "trial": 71, "rt": 411, "response": "Alpha"}, "70": {"stimulus": 73, "trial": 70, "rt": 420, "response": "Alpha"}, "59": {"stimulus": 43, "trial": 59, "rt": 859, "response": "Beta"}, "79": {"stimulus": 60, "trial": 79, "rt": 563, "response": "Alpha"}, "58": {"stimulus": 80, "trial": 58, "rt": 931, "response": "Beta"}, "11": {"stimulus": 9, "trial": 11, "rt": 466, "response": "Alpha"}, "10": {"stimulus": 66, "trial": 10, "rt": 627, "response": "Alpha"}, "13": {"stimulus": 35, "trial": 13, "rt": 1138, "response": "Beta"}, "12": {"stimulus": 5, "trial": 12, "rt": 467, "response": "Alpha"}, "15": {"stimulus": 0, "trial": 15, "rt": 1075, "response": "Beta"}, "14": {"stimulus": 69, "trial": 14, "rt": 868, "response": "Alpha"}, "17": {"stimulus": 48, "trial": 17, "rt": 457, "response": "Alpha"}, "16": {"stimulus": 41, "trial": 16, "rt": 899, "response": "Alpha"}, "19": {"stimulus": 20, "trial": 19, "rt": 1179, "response": "Alpha"}, "18": {"stimulus": 17, "trial": 18, "rt": 835, "response": "Beta"}, "31": {"stimulus": 50, "trial": 31, "rt": 547, "response": "Alpha"}, "30": {"stimulus": 14, "trial": 30, "rt": 1155, "response": "Alpha"}, "37": {"stimulus": 40, "trial": 37, "rt": 475, "response": "Alpha"}, "36": {"stimulus": 78, "trial": 36, "rt": 1060, "response": "Alpha"}, "35": {"stimulus": 16, "trial": 35, "rt": 5221, "response": "Beta"}, "34": {"stimulus": 79, "trial": 34, "rt": 794, "response": "Beta"}, "33": {"stimulus": 74, "trial": 33, "rt": 947, "response": "Alpha"}, "55": {"stimulus": 8, "trial": 55, "rt": 923, "response": "Beta"}, "74": {"stimulus": 72, "trial": 74, "rt": 3419, "response": "Beta"}, "32": {"stimulus": 54, "trial": 32, "rt": 1458, "response": "Beta"}, "57": {"stimulus": 22, "trial": 57, "rt": 539, "response": "Alpha"}, "50": {"stimulus": 63, "trial": 50, "rt": 531, "response": "Alpha"}}}