{"generation": {"1": {"stimulus": 27, "trial": 1, "rt": 6184}, "0": {"stimulus": 36, "trial": 0, "rt": 8288}, "3": {"stimulus": 18, "trial": 3, "rt": 7195}, "2": {"stimulus": 45, "trial": 2, "rt": 5347}}, "info": {"finish": 1488822878867, "participant": 169, "exposed": true, "lab": false, "start": 1488822661007, "counterbalance": 6, "condition": "Row", "browser": {"platform": "MacIntel", "userAgent": "Mozilla/5.0 (Macintosh; Intel Mac OS X 10_10_5) AppleWebKit/602.4.8 (KHTML, like Gecko) Version/10.0.3 Safari/602.4.8"}}, "experiment": {"Paradigm": "TACL", "Stimuli": "Size-Color Squares", "Experiment": "Generating-Categories"}, "observation": {"11": {"stimulus": 14, "trial": 11, "rt": 895}, "10": {"stimulus": 10, "trial": 10, "rt": 873}, "1": {"stimulus": 14, "trial": 1, "rt": 1417}, "0": {"stimulus": 16, "trial": 0, "rt": 2027}, "3": {"stimulus": 12, "trial": 3, "rt": 902}, "2": {"stimulus": 10, "trial": 2, "rt": 1394}, "5": {"stimulus": 10, "trial": 5, "rt": 987}, "4": {"stimulus": 16, "trial": 4, "rt": 975}, "7": {"stimulus": 14, "trial": 7, "rt": 1139}, "6": {"stimulus": 12, "trial": 6, "rt": 719}, "9": {"stimulus": 12, "trial": 9, "rt": 946}, "8": {"stimulus": 16, "trial": 8, "rt": 2105}}, "generalization": {"56": {"stimulus": 21, "trial": 56, "rt": 6539, "response": "Beta"}, "77": {"stimulus": 62, "trial": 77, "rt": 597, "response": "Beta"}, "54": {"stimulus": 37, "trial": 54, "rt": 533, "response": "Beta"}, "42": {"stimulus": 64, "trial": 42, "rt": 535, "response": "Beta"}, "48": {"stimulus": 26, "trial": 48, "rt": 1203, "response": "Beta"}, "43": {"stimulus": 40, "trial": 43, "rt": 687, "response": "Beta"}, "60": {"stimulus": 47, "trial": 60, "rt": 589, "response": "Beta"}, "61": {"stimulus": 65, "trial": 61, "rt": 495, "response": "Beta"}, "62": {"stimulus": 15, "trial": 62, "rt": 867, "response": "Alpha"}, "63": {"stimulus": 53, "trial": 63, "rt": 751, "response": "Beta"}, "64": {"stimulus": 11, "trial": 64, "rt": 839, "response": "Alpha"}, "49": {"stimulus": 59, "trial": 49, "rt": 603, "response": "Beta"}, "66": {"stimulus": 28, "trial": 66, "rt": 1293, "response": "Beta"}, "67": {"stimulus": 78, "trial": 67, "rt": 831, "response": "Beta"}, "68": {"stimulus": 76, "trial": 68, "rt": 431, "response": "Beta"}, "69": {"stimulus": 10, "trial": 69, "rt": 774, "response": "Alpha"}, "80": {"stimulus": 72, "trial": 80, "rt": 439, "response": "Beta"}, "52": {"stimulus": 25, "trial": 52, "rt": 1081, "response": "Alpha"}, "53": {"stimulus": 27, "trial": 53, "rt": 823, "response": "Beta"}, "24": {"stimulus": 22, "trial": 24, "rt": 972, "response": "Alpha"}, "25": {"stimulus": 30, "trial": 25, "rt": 597, "response": "Alpha"}, "26": {"stimulus": 6, "trial": 26, "rt": 2799, "response": "Beta"}, "27": {"stimulus": 34, "trial": 27, "rt": 1180, "response": "Alpha"}, "20": {"stimulus": 58, "trial": 20, "rt": 519, "response": "Beta"}, "21": {"stimulus": 57, "trial": 21, "rt": 655, "response": "Beta"}, "22": {"stimulus": 23, "trial": 22, "rt": 2205, "response": "Alpha"}, "23": {"stimulus": 60, "trial": 23, "rt": 976, "response": "Beta"}, "46": {"stimulus": 52, "trial": 46, "rt": 631, "response": "Beta"}, "47": {"stimulus": 73, "trial": 47, "rt": 735, "response": "Beta"}, "44": {"stimulus": 49, "trial": 44, "rt": 583, "response": "Beta"}, "45": {"stimulus": 31, "trial": 45, "rt": 683, "response": "Beta"}, "28": {"stimulus": 20, "trial": 28, "rt": 800, "response": "Alpha"}, "29": {"stimulus": 79, "trial": 29, "rt": 1049, "response": "Beta"}, "40": {"stimulus": 38, "trial": 40, "rt": 692, "response": "Beta"}, "41": {"stimulus": 75, "trial": 41, "rt": 530, "response": "Beta"}, "1": {"stimulus": 5, "trial": 1, "rt": 2689, "response": "Beta"}, "0": {"stimulus": 17, "trial": 0, "rt": 1328, "response": "Alpha"}, "3": {"stimulus": 9, "trial": 3, "rt": 773, "response": "Alpha"}, "2": {"stimulus": 44, "trial": 2, "rt": 1507, "response": "Beta"}, "5": {"stimulus": 56, "trial": 5, "rt": 860, "response": "Beta"}, "4": {"stimulus": 35, "trial": 4, "rt": 1375, "response": "Beta"}, "7": {"stimulus": 80, "trial": 7, "rt": 1257, "response": "Beta"}, "6": {"stimulus": 36, "trial": 6, "rt": 1040, "response": "Beta"}, "9": {"stimulus": 41, "trial": 9, "rt": 2357, "response": "Alpha"}, "8": {"stimulus": 51, "trial": 8, "rt": 805, "response": "Beta"}, "78": {"stimulus": 8, "trial": 78, "rt": 815, "response": "Beta"}, "51": {"stimulus": 33, "trial": 51, "rt": 727, "response": "Beta"}, "39": {"stimulus": 4, "trial": 39, "rt": 1762, "response": "Beta"}, "65": {"stimulus": 1, "trial": 65, "rt": 1356, "response": "Beta"}, "76": {"stimulus": 66, "trial": 76, "rt": 737, "response": "Beta"}, "75": {"stimulus": 55, "trial": 75, "rt": 1856, "response": "Beta"}, "38": {"stimulus": 45, "trial": 38, "rt": 778, "response": "Beta"}, "73": {"stimulus": 7, "trial": 73, "rt": 1113, "response": "Alpha"}, "72": {"stimulus": 46, "trial": 72, "rt": 559, "response": "Beta"}, "71": {"stimulus": 39, "trial": 71, "rt": 603, "response": "Beta"}, "70": {"stimulus": 63, "trial": 70, "rt": 16911, "response": "Beta"}, "59": {"stimulus": 19, "trial": 59, "rt": 1323, "response": "Beta"}, "79": {"stimulus": 67, "trial": 79, "rt": 520, "response": "Beta"}, "58": {"stimulus": 69, "trial": 58, "rt": 1129, "response": "Beta"}, "11": {"stimulus": 70, "trial": 11, "rt": 997, "response": "Beta"}, "10": {"stimulus": 71, "trial": 10, "rt": 820, "response": "Beta"}, "13": {"stimulus": 12, "trial": 13, "rt": 1355, "response": "Alpha"}, "12": {"stimulus": 18, "trial": 12, "rt": 906, "response": "Alpha"}, "15": {"stimulus": 43, "trial": 15, "rt": 1169, "response": "Beta"}, "14": {"stimulus": 0, "trial": 14, "rt": 673, "response": "Alpha"}, "17": {"stimulus": 29, "trial": 17, "rt": 737, "response": "Beta"}, "16": {"stimulus": 42, "trial": 16, "rt": 999, "response": "Beta"}, "19": {"stimulus": 54, "trial": 19, "rt": 791, "response": "Beta"}, "18": {"stimulus": 50, "trial": 18, "rt": 775, "response": "Beta"}, "31": {"stimulus": 68, "trial": 31, "rt": 727, "response": "Beta"}, "30": {"stimulus": 3, "trial": 30, "rt": 989, "response": "Beta"}, "37": {"stimulus": 32, "trial": 37, "rt": 3686, "response": "Beta"}, "36": {"stimulus": 24, "trial": 36, "rt": 1039, "response": "Alpha"}, "35": {"stimulus": 2, "trial": 35, "rt": 1259, "response": "Beta"}, "34": {"stimulus": 74, "trial": 34, "rt": 1167, "response": "Beta"}, "33": {"stimulus": 13, "trial": 33, "rt": 1131, "response": "Alpha"}, "55": {"stimulus": 14, "trial": 55, "rt": 2230, "response": "Alpha"}, "74": {"stimulus": 77, "trial": 74, "rt": 795, "response": "Beta"}, "32": {"stimulus": 48, "trial": 32, "rt": 1851, "response": "Beta"}, "57": {"stimulus": 16, "trial": 57, "rt": 2295, "response": "Beta"}, "50": {"stimulus": 61, "trial": 50, "rt": 431, "response": "Beta"}}}