{"generation": {"1": {"stimulus": 10, "trial": 1, "rt": 10172}, "0": {"stimulus": 0, "trial": 0, "rt": 19064}, "3": {"stimulus": 27, "trial": 3, "rt": 5243}, "2": {"stimulus": 9, "trial": 2, "rt": 11861}}, "info": {"finish": 1488822108898, "participant": 17, "exposed": true, "lab": false, "start": 1488821818787, "counterbalance": 5, "condition": "Cluster", "browser": {"platform": "Win32", "userAgent": "Mozilla/5.0 (Windows NT 6.1; WOW64) AppleWebKit/537.36 (KHTML, like Gecko) Chrome/56.0.2924.87 Safari/537.36"}}, "experiment": {"Paradigm": "TACL", "Stimuli": "Size-Color Squares", "Experiment": "Generating-Categories"}, "observation": {"11": {"stimulus": 14, "trial": 11, "rt": 1591}, "10": {"stimulus": 34, "trial": 10, "rt": 1371}, "1": {"stimulus": 32, "trial": 1, "rt": 3379}, "0": {"stimulus": 16, "trial": 0, "rt": 3324}, "3": {"stimulus": 14, "trial": 3, "rt": 3639}, "2": {"stimulus": 34, "trial": 2, "rt": 3367}, "5": {"stimulus": 34, "trial": 5, "rt": 2081}, "4": {"stimulus": 14, "trial": 4, "rt": 3565}, "7": {"stimulus": 32, "trial": 7, "rt": 2260}, "6": {"stimulus": 16, "trial": 6, "rt": 1423}, "9": {"stimulus": 16, "trial": 9, "rt": 1303}, "8": {"stimulus": 32, "trial": 8, "rt": 2059}}, "generalization": {"56": {"stimulus": 61, "trial": 56, "rt": 592, "response": "Alpha"}, "77": {"stimulus": 18, "trial": 77, "rt": 644, "response": "Beta"}, "54": {"stimulus": 65, "trial": 54, "rt": 1058, "response": "Alpha"}, "42": {"stimulus": 39, "trial": 42, "rt": 1650, "response": "Alpha"}, "48": {"stimulus": 63, "trial": 48, "rt": 1694, "response": "Alpha"}, "43": {"stimulus": 28, "trial": 43, "rt": 1176, "response": "Beta"}, "60": {"stimulus": 42, "trial": 60, "rt": 722, "response": "Alpha"}, "61": {"stimulus": 76, "trial": 61, "rt": 661, "response": "Alpha"}, "62": {"stimulus": 20, "trial": 62, "rt": 1941, "response": "Beta"}, "63": {"stimulus": 3, "trial": 63, "rt": 827, "response": "Beta"}, "64": {"stimulus": 55, "trial": 64, "rt": 1791, "response": "Alpha"}, "49": {"stimulus": 43, "trial": 49, "rt": 1038, "response": "Alpha"}, "66": {"stimulus": 45, "trial": 66, "rt": 1368, "response": "Alpha"}, "67": {"stimulus": 7, "trial": 67, "rt": 1220, "response": "Beta"}, "68": {"stimulus": 23, "trial": 68, "rt": 1959, "response": "Alpha"}, "69": {"stimulus": 1, "trial": 69, "rt": 1024, "response": "Beta"}, "80": {"stimulus": 75, "trial": 80, "rt": 1018, "response": "Alpha"}, "52": {"stimulus": 17, "trial": 52, "rt": 1097, "response": "Beta"}, "53": {"stimulus": 16, "trial": 53, "rt": 558, "response": "Beta"}, "24": {"stimulus": 58, "trial": 24, "rt": 1278, "response": "Alpha"}, "25": {"stimulus": 71, "trial": 25, "rt": 758, "response": "Alpha"}, "26": {"stimulus": 21, "trial": 26, "rt": 1561, "response": "Beta"}, "27": {"stimulus": 35, "trial": 27, "rt": 1091, "response": "Alpha"}, "20": {"stimulus": 25, "trial": 20, "rt": 2018, "response": "Alpha"}, "21": {"stimulus": 57, "trial": 21, "rt": 1259, "response": "Alpha"}, "22": {"stimulus": 50, "trial": 22, "rt": 859, "response": "Alpha"}, "23": {"stimulus": 11, "trial": 23, "rt": 1359, "response": "Beta"}, "46": {"stimulus": 77, "trial": 46, "rt": 1705, "response": "Alpha"}, "47": {"stimulus": 51, "trial": 47, "rt": 847, "response": "Alpha"}, "44": {"stimulus": 73, "trial": 44, "rt": 1643, "response": "Alpha"}, "45": {"stimulus": 29, "trial": 45, "rt": 3797, "response": "Beta"}, "28": {"stimulus": 19, "trial": 28, "rt": 1177, "response": "Beta"}, "29": {"stimulus": 47, "trial": 29, "rt": 1323, "response": "Alpha"}, "40": {"stimulus": 74, "trial": 40, "rt": 958, "response": "Alpha"}, "41": {"stimulus": 72, "trial": 41, "rt": 1710, "response": "Alpha"}, "1": {"stimulus": 44, "trial": 1, "rt": 928, "response": "Alpha"}, "0": {"stimulus": 4, "trial": 0, "rt": 3057, "response": "Beta"}, "3": {"stimulus": 66, "trial": 3, "rt": 1611, "response": "Alpha"}, "2": {"stimulus": 48, "trial": 2, "rt": 1413, "response": "Alpha"}, "5": {"stimulus": 30, "trial": 5, "rt": 1526, "response": "Beta"}, "4": {"stimulus": 22, "trial": 4, "rt": 1508, "response": "Beta"}, "7": {"stimulus": 54, "trial": 7, "rt": 1029, "response": "Beta"}, "6": {"stimulus": 36, "trial": 6, "rt": 1280, "response": "Beta"}, "9": {"stimulus": 5, "trial": 9, "rt": 1149, "response": "Beta"}, "8": {"stimulus": 80, "trial": 8, "rt": 1067, "response": "Alpha"}, "78": {"stimulus": 8, "trial": 78, "rt": 711, "response": "Beta"}, "51": {"stimulus": 79, "trial": 51, "rt": 742, "response": "Alpha"}, "39": {"stimulus": 59, "trial": 39, "rt": 1470, "response": "Alpha"}, "65": {"stimulus": 33, "trial": 65, "rt": 1775, "response": "Alpha"}, "76": {"stimulus": 27, "trial": 76, "rt": 1312, "response": "Beta"}, "75": {"stimulus": 62, "trial": 75, "rt": 678, "response": "Alpha"}, "38": {"stimulus": 0, "trial": 38, "rt": 742, "response": "Beta"}, "73": {"stimulus": 67, "trial": 73, "rt": 675, "response": "Alpha"}, "72": {"stimulus": 68, "trial": 72, "rt": 889, "response": "Alpha"}, "71": {"stimulus": 52, "trial": 71, "rt": 1047, "response": "Alpha"}, "70": {"stimulus": 6, "trial": 70, "rt": 779, "response": "Beta"}, "59": {"stimulus": 40, "trial": 59, "rt": 1455, "response": "Alpha"}, "79": {"stimulus": 78, "trial": 79, "rt": 1006, "response": "Alpha"}, "58": {"stimulus": 34, "trial": 58, "rt": 1662, "response": "Alpha"}, "11": {"stimulus": 46, "trial": 11, "rt": 1554, "response": "Alpha"}, "10": {"stimulus": 69, "trial": 10, "rt": 1095, "response": "Alpha"}, "13": {"stimulus": 15, "trial": 13, "rt": 2905, "response": "Beta"}, "12": {"stimulus": 56, "trial": 12, "rt": 1424, "response": "Alpha"}, "15": {"stimulus": 37, "trial": 15, "rt": 1278, "response": "Beta"}, "14": {"stimulus": 64, "trial": 14, "rt": 1228, "response": "Alpha"}, "17": {"stimulus": 26, "trial": 17, "rt": 2836, "response": "Beta"}, "16": {"stimulus": 2, "trial": 16, "rt": 816, "response": "Beta"}, "19": {"stimulus": 9, "trial": 19, "rt": 1179, "response": "Beta"}, "18": {"stimulus": 53, "trial": 18, "rt": 1446, "response": "Alpha"}, "31": {"stimulus": 13, "trial": 31, "rt": 1460, "response": "Beta"}, "30": {"stimulus": 38, "trial": 30, "rt": 1032, "response": "Alpha"}, "37": {"stimulus": 10, "trial": 37, "rt": 1122, "response": "Beta"}, "36": {"stimulus": 14, "trial": 36, "rt": 1180, "response": "Beta"}, "35": {"stimulus": 60, "trial": 35, "rt": 675, "response": "Alpha"}, "34": {"stimulus": 31, "trial": 34, "rt": 1595, "response": "Alpha"}, "33": {"stimulus": 49, "trial": 33, "rt": 1357, "response": "Alpha"}, "55": {"stimulus": 41, "trial": 55, "rt": 848, "response": "Alpha"}, "74": {"stimulus": 32, "trial": 74, "rt": 920, "response": "Alpha"}, "32": {"stimulus": 24, "trial": 32, "rt": 1759, "response": "Beta"}, "57": {"stimulus": 12, "trial": 57, "rt": 2045, "response": "Beta"}, "50": {"stimulus": 70, "trial": 50, "rt": 645, "response": "Alpha"}}}