{"generation": {"1": {"stimulus": 72, "trial": 1, "rt": 10981}, "0": {"stimulus": 80, "trial": 0, "rt": 11367}, "3": {"stimulus": 71, "trial": 3, "rt": 5221}, "2": {"stimulus": 63, "trial": 2, "rt": 5694}}, "info": {"finish": 1488823271757, "participant": 172, "exposed": true, "lab": false, "start": 1488822655425, "counterbalance": 5, "condition": "Row", "browser": {"platform": "Win32", "userAgent": "Mozilla/5.0 (Windows NT 6.0; rv:51.0) Gecko/20100101 Firefox/51.0"}}, "experiment": {"Paradigm": "TACL", "Stimuli": "Size-Color Squares", "Experiment": "Generating-Categories"}, "observation": {"11": {"stimulus": 12, "trial": 11, "rt": 2137}, "10": {"stimulus": 10, "trial": 10, "rt": 2660}, "1": {"stimulus": 12, "trial": 1, "rt": 2641}, "0": {"stimulus": 16, "trial": 0, "rt": 2748}, "3": {"stimulus": 10, "trial": 3, "rt": 1332}, "2": {"stimulus": 14, "trial": 2, "rt": 1185}, "5": {"stimulus": 12, "trial": 5, "rt": 11829}, "4": {"stimulus": 10, "trial": 4, "rt": 10068}, "7": {"stimulus": 16, "trial": 7, "rt": 2862}, "6": {"stimulus": 14, "trial": 6, "rt": 27720}, "9": {"stimulus": 14, "trial": 9, "rt": 1144}, "8": {"stimulus": 16, "trial": 8, "rt": 2430}}, "generalization": {"56": {"stimulus": 10, "trial": 56, "rt": 656, "response": "Alpha"}, "77": {"stimulus": 39, "trial": 77, "rt": 1044, "response": "Alpha"}, "54": {"stimulus": 75, "trial": 54, "rt": 2097, "response": "Beta"}, "42": {"stimulus": 6, "trial": 42, "rt": 1522, "response": "Alpha"}, "48": {"stimulus": 56, "trial": 48, "rt": 1361, "response": "Beta"}, "43": {"stimulus": 55, "trial": 43, "rt": 1452, "response": "Beta"}, "60": {"stimulus": 18, "trial": 60, "rt": 133046, "response": "Alpha"}, "61": {"stimulus": 73, "trial": 61, "rt": 1112, "response": "Beta"}, "62": {"stimulus": 63, "trial": 62, "rt": 768, "response": "Beta"}, "63": {"stimulus": 70, "trial": 63, "rt": 614, "response": "Beta"}, "64": {"stimulus": 69, "trial": 64, "rt": 481, "response": "Beta"}, "49": {"stimulus": 58, "trial": 49, "rt": 671, "response": "Beta"}, "66": {"stimulus": 34, "trial": 66, "rt": 1052, "response": "Alpha"}, "67": {"stimulus": 1, "trial": 67, "rt": 566, "response": "Alpha"}, "68": {"stimulus": 54, "trial": 68, "rt": 787, "response": "Beta"}, "69": {"stimulus": 7, "trial": 69, "rt": 1101, "response": "Alpha"}, "80": {"stimulus": 44, "trial": 80, "rt": 4555, "response": "Alpha"}, "52": {"stimulus": 74, "trial": 52, "rt": 1825, "response": "Beta"}, "53": {"stimulus": 0, "trial": 53, "rt": 1014, "response": "Alpha"}, "24": {"stimulus": 26, "trial": 24, "rt": 953, "response": "Alpha"}, "25": {"stimulus": 2, "trial": 25, "rt": 598, "response": "Alpha"}, "26": {"stimulus": 62, "trial": 26, "rt": 1003, "response": "Beta"}, "27": {"stimulus": 49, "trial": 27, "rt": 496, "response": "Beta"}, "20": {"stimulus": 37, "trial": 20, "rt": 793, "response": "Beta"}, "21": {"stimulus": 36, "trial": 21, "rt": 1104, "response": "Beta"}, "22": {"stimulus": 47, "trial": 22, "rt": 539, "response": "Beta"}, "23": {"stimulus": 76, "trial": 23, "rt": 453, "response": "Beta"}, "46": {"stimulus": 38, "trial": 46, "rt": 2241, "response": "Alpha"}, "47": {"stimulus": 60, "trial": 47, "rt": 999, "response": "Beta"}, "44": {"stimulus": 53, "trial": 44, "rt": 86617, "response": "Beta"}, "45": {"stimulus": 80, "trial": 45, "rt": 895, "response": "Beta"}, "28": {"stimulus": 19, "trial": 28, "rt": 790, "response": "Alpha"}, "29": {"stimulus": 65, "trial": 29, "rt": 1051, "response": "Beta"}, "40": {"stimulus": 43, "trial": 40, "rt": 1138, "response": "Alpha"}, "41": {"stimulus": 61, "trial": 41, "rt": 570, "response": "Beta"}, "1": {"stimulus": 52, "trial": 1, "rt": 1049, "response": "Beta"}, "0": {"stimulus": 21, "trial": 0, "rt": 18197, "response": "Alpha"}, "3": {"stimulus": 23, "trial": 3, "rt": 846, "response": "Alpha"}, "2": {"stimulus": 48, "trial": 2, "rt": 819, "response": "Beta"}, "5": {"stimulus": 50, "trial": 5, "rt": 993, "response": "Beta"}, "4": {"stimulus": 22, "trial": 4, "rt": 968, "response": "Alpha"}, "7": {"stimulus": 14, "trial": 7, "rt": 818, "response": "Alpha"}, "6": {"stimulus": 77, "trial": 6, "rt": 693, "response": "Beta"}, "9": {"stimulus": 28, "trial": 9, "rt": 954, "response": "Alpha"}, "8": {"stimulus": 41, "trial": 8, "rt": 2018, "response": "Beta"}, "78": {"stimulus": 40, "trial": 78, "rt": 656, "response": "Alpha"}, "51": {"stimulus": 11, "trial": 51, "rt": 5751, "response": "Alpha"}, "39": {"stimulus": 68, "trial": 39, "rt": 731, "response": "Beta"}, "65": {"stimulus": 8, "trial": 65, "rt": 1662, "response": "Alpha"}, "76": {"stimulus": 29, "trial": 76, "rt": 1059, "response": "Alpha"}, "75": {"stimulus": 15, "trial": 75, "rt": 480, "response": "Alpha"}, "38": {"stimulus": 78, "trial": 38, "rt": 1761, "response": "Beta"}, "73": {"stimulus": 17, "trial": 73, "rt": 780, "response": "Alpha"}, "72": {"stimulus": 64, "trial": 72, "rt": 666, "response": "Beta"}, "71": {"stimulus": 79, "trial": 71, "rt": 775, "response": "Beta"}, "70": {"stimulus": 35, "trial": 70, "rt": 1668, "response": "Alpha"}, "59": {"stimulus": 13, "trial": 59, "rt": 1251, "response": "Alpha"}, "79": {"stimulus": 27, "trial": 79, "rt": 586, "response": "Alpha"}, "58": {"stimulus": 67, "trial": 58, "rt": 688, "response": "Beta"}, "11": {"stimulus": 32, "trial": 11, "rt": 1718, "response": "Beta"}, "10": {"stimulus": 9, "trial": 10, "rt": 1885, "response": "Alpha"}, "13": {"stimulus": 25, "trial": 13, "rt": 826, "response": "Alpha"}, "12": {"stimulus": 59, "trial": 12, "rt": 573, "response": "Beta"}, "15": {"stimulus": 66, "trial": 15, "rt": 1018, "response": "Beta"}, "14": {"stimulus": 33, "trial": 14, "rt": 674, "response": "Alpha"}, "17": {"stimulus": 51, "trial": 17, "rt": 494, "response": "Beta"}, "16": {"stimulus": 71, "trial": 16, "rt": 671, "response": "Beta"}, "19": {"stimulus": 42, "trial": 19, "rt": 481, "response": "Beta"}, "18": {"stimulus": 46, "trial": 18, "rt": 468, "response": "Beta"}, "31": {"stimulus": 45, "trial": 31, "rt": 783, "response": "Beta"}, "30": {"stimulus": 57, "trial": 30, "rt": 837, "response": "Beta"}, "37": {"stimulus": 16, "trial": 37, "rt": 923, "response": "Alpha"}, "36": {"stimulus": 30, "trial": 36, "rt": 3475, "response": "Alpha"}, "35": {"stimulus": 5, "trial": 35, "rt": 486, "response": "Alpha"}, "34": {"stimulus": 24, "trial": 34, "rt": 501, "response": "Alpha"}, "33": {"stimulus": 12, "trial": 33, "rt": 1161, "response": "Alpha"}, "55": {"stimulus": 31, "trial": 55, "rt": 2841, "response": "Alpha"}, "74": {"stimulus": 4, "trial": 74, "rt": 645, "response": "Alpha"}, "32": {"stimulus": 20, "trial": 32, "rt": 1005, "response": "Alpha"}, "57": {"stimulus": 72, "trial": 57, "rt": 1362, "response": "Beta"}, "50": {"stimulus": 3, "trial": 50, "rt": 3359, "response": "Alpha"}}}