{"generation": {"1": {"stimulus": 72, "trial": 1, "rt": 5974}, "0": {"stimulus": 80, "trial": 0, "rt": 19928}, "3": {"stimulus": 75, "trial": 3, "rt": 5185}, "2": {"stimulus": 77, "trial": 2, "rt": 4536}}, "info": {"finish": 1488823002376, "participant": 173, "exposed": true, "lab": false, "start": 1488822685404, "counterbalance": 5, "condition": "Row", "browser": {"platform": "Win32", "userAgent": "Mozilla/5.0 (Windows NT 10.0; WOW64) AppleWebKit/537.36 (KHTML, like Gecko) Chrome/56.0.2924.87 Safari/537.36"}}, "experiment": {"Paradigm": "TACL", "Stimuli": "Size-Color Squares", "Experiment": "Generating-Categories"}, "observation": {"11": {"stimulus": 14, "trial": 11, "rt": 1942}, "10": {"stimulus": 12, "trial": 10, "rt": 2099}, "1": {"stimulus": 16, "trial": 1, "rt": 3732}, "0": {"stimulus": 10, "trial": 0, "rt": 2320}, "3": {"stimulus": 14, "trial": 3, "rt": 2470}, "2": {"stimulus": 12, "trial": 2, "rt": 2204}, "5": {"stimulus": 14, "trial": 5, "rt": 2167}, "4": {"stimulus": 10, "trial": 4, "rt": 2198}, "7": {"stimulus": 16, "trial": 7, "rt": 2772}, "6": {"stimulus": 12, "trial": 6, "rt": 2055}, "9": {"stimulus": 10, "trial": 9, "rt": 1843}, "8": {"stimulus": 16, "trial": 8, "rt": 2261}}, "generalization": {"56": {"stimulus": 23, "trial": 56, "rt": 2234, "response": "Alpha"}, "77": {"stimulus": 47, "trial": 77, "rt": 823, "response": "Alpha"}, "54": {"stimulus": 52, "trial": 54, "rt": 797, "response": "Alpha"}, "42": {"stimulus": 32, "trial": 42, "rt": 1057, "response": "Alpha"}, "48": {"stimulus": 50, "trial": 48, "rt": 2084, "response": "Beta"}, "43": {"stimulus": 66, "trial": 43, "rt": 737, "response": "Beta"}, "60": {"stimulus": 76, "trial": 60, "rt": 822, "response": "Beta"}, "61": {"stimulus": 1, "trial": 61, "rt": 885, "response": "Beta"}, "62": {"stimulus": 28, "trial": 62, "rt": 717, "response": "Alpha"}, "63": {"stimulus": 33, "trial": 63, "rt": 758, "response": "Alpha"}, "64": {"stimulus": 13, "trial": 64, "rt": 948, "response": "Beta"}, "49": {"stimulus": 10, "trial": 49, "rt": 885, "response": "Beta"}, "66": {"stimulus": 63, "trial": 66, "rt": 758, "response": "Beta"}, "67": {"stimulus": 27, "trial": 67, "rt": 6053, "response": "Alpha"}, "68": {"stimulus": 74, "trial": 68, "rt": 1178, "response": "Beta"}, "69": {"stimulus": 51, "trial": 69, "rt": 6761, "response": "Beta"}, "80": {"stimulus": 53, "trial": 80, "rt": 1151, "response": "Beta"}, "52": {"stimulus": 56, "trial": 52, "rt": 837, "response": "Beta"}, "53": {"stimulus": 71, "trial": 53, "rt": 772, "response": "Beta"}, "24": {"stimulus": 21, "trial": 24, "rt": 1493, "response": "Alpha"}, "25": {"stimulus": 35, "trial": 25, "rt": 1203, "response": "Alpha"}, "26": {"stimulus": 45, "trial": 26, "rt": 780, "response": "Beta"}, "27": {"stimulus": 20, "trial": 27, "rt": 685, "response": "Alpha"}, "20": {"stimulus": 31, "trial": 20, "rt": 876, "response": "Alpha"}, "21": {"stimulus": 29, "trial": 21, "rt": 866, "response": "Alpha"}, "22": {"stimulus": 79, "trial": 22, "rt": 763, "response": "Beta"}, "23": {"stimulus": 34, "trial": 23, "rt": 796, "response": "Alpha"}, "46": {"stimulus": 7, "trial": 46, "rt": 812, "response": "Beta"}, "47": {"stimulus": 17, "trial": 47, "rt": 1090, "response": "Beta"}, "44": {"stimulus": 2, "trial": 44, "rt": 2559, "response": "Beta"}, "45": {"stimulus": 42, "trial": 45, "rt": 1217, "response": "Alpha"}, "28": {"stimulus": 64, "trial": 28, "rt": 755, "response": "Beta"}, "29": {"stimulus": 72, "trial": 29, "rt": 988, "response": "Beta"}, "40": {"stimulus": 3, "trial": 40, "rt": 1460, "response": "Beta"}, "41": {"stimulus": 49, "trial": 41, "rt": 892, "response": "Alpha"}, "1": {"stimulus": 43, "trial": 1, "rt": 1348, "response": "Alpha"}, "0": {"stimulus": 39, "trial": 0, "rt": 1324, "response": "Alpha"}, "3": {"stimulus": 41, "trial": 3, "rt": 960, "response": "Alpha"}, "2": {"stimulus": 68, "trial": 2, "rt": 1171, "response": "Beta"}, "5": {"stimulus": 11, "trial": 5, "rt": 1429, "response": "Beta"}, "4": {"stimulus": 30, "trial": 4, "rt": 943, "response": "Alpha"}, "7": {"stimulus": 38, "trial": 7, "rt": 1236, "response": "Alpha"}, "6": {"stimulus": 55, "trial": 6, "rt": 1322, "response": "Beta"}, "9": {"stimulus": 58, "trial": 9, "rt": 1287, "response": "Beta"}, "8": {"stimulus": 9, "trial": 8, "rt": 1092, "response": "Beta"}, "78": {"stimulus": 26, "trial": 78, "rt": 574, "response": "Beta"}, "51": {"stimulus": 16, "trial": 51, "rt": 1575, "response": "Beta"}, "39": {"stimulus": 80, "trial": 39, "rt": 595, "response": "Beta"}, "65": {"stimulus": 18, "trial": 65, "rt": 980, "response": "Alpha"}, "76": {"stimulus": 25, "trial": 76, "rt": 1678, "response": "Alpha"}, "75": {"stimulus": 48, "trial": 75, "rt": 870, "response": "Beta"}, "38": {"stimulus": 70, "trial": 38, "rt": 659, "response": "Beta"}, "73": {"stimulus": 46, "trial": 73, "rt": 1360, "response": "Beta"}, "72": {"stimulus": 0, "trial": 72, "rt": 1022, "response": "Beta"}, "71": {"stimulus": 67, "trial": 71, "rt": 1187, "response": "Beta"}, "70": {"stimulus": 69, "trial": 70, "rt": 1071, "response": "Beta"}, "59": {"stimulus": 19, "trial": 59, "rt": 1534, "response": "Alpha"}, "79": {"stimulus": 44, "trial": 79, "rt": 839, "response": "Alpha"}, "58": {"stimulus": 61, "trial": 58, "rt": 813, "response": "Beta"}, "11": {"stimulus": 65, "trial": 11, "rt": 740, "response": "Beta"}, "10": {"stimulus": 4, "trial": 10, "rt": 2698, "response": "Alpha"}, "13": {"stimulus": 24, "trial": 13, "rt": 746, "response": "Alpha"}, "12": {"stimulus": 5, "trial": 12, "rt": 748, "response": "Alpha"}, "15": {"stimulus": 37, "trial": 15, "rt": 2505, "response": "Beta"}, "14": {"stimulus": 75, "trial": 14, "rt": 819, "response": "Beta"}, "17": {"stimulus": 36, "trial": 17, "rt": 785, "response": "Alpha"}, "16": {"stimulus": 8, "trial": 16, "rt": 1805, "response": "Beta"}, "19": {"stimulus": 22, "trial": 19, "rt": 1146, "response": "Alpha"}, "18": {"stimulus": 54, "trial": 18, "rt": 920, "response": "Beta"}, "31": {"stimulus": 59, "trial": 31, "rt": 915, "response": "Beta"}, "30": {"stimulus": 6, "trial": 30, "rt": 1142, "response": "Beta"}, "37": {"stimulus": 73, "trial": 37, "rt": 755, "response": "Beta"}, "36": {"stimulus": 57, "trial": 36, "rt": 1037, "response": "Beta"}, "35": {"stimulus": 40, "trial": 35, "rt": 1885, "response": "Beta"}, "34": {"stimulus": 15, "trial": 34, "rt": 2636, "response": "Beta"}, "33": {"stimulus": 78, "trial": 33, "rt": 816, "response": "Beta"}, "55": {"stimulus": 77, "trial": 55, "rt": 823, "response": "Beta"}, "74": {"stimulus": 60, "trial": 74, "rt": 757, "response": "Beta"}, "32": {"stimulus": 62, "trial": 32, "rt": 960, "response": "Beta"}, "57": {"stimulus": 14, "trial": 57, "rt": 869, "response": "Beta"}, "50": {"stimulus": 12, "trial": 50, "rt": 1244, "response": "Beta"}}}