{"generation": {"1": {"stimulus": 80, "trial": 1, "rt": 10378}, "0": {"stimulus": 0, "trial": 0, "rt": 20947}, "3": {"stimulus": 76, "trial": 3, "rt": 3595}, "2": {"stimulus": 4, "trial": 2, "rt": 6596}}, "info": {"participant": 174, "exposed": true, "lab": false, "start": 1488822693791, "counterbalance": 2, "condition": "Cluster", "browser": {"platform": "Win32", "userAgent": "Mozilla/5.0 (Windows NT 6.1; WOW64) AppleWebKit/537.36 (KHTML, like Gecko) Chrome/50.0.2661.94 Safari/537.36"}}, "experiment": {"Paradigm": "TACL", "Stimuli": "Size-Color Squares", "Experiment": "Generating-Categories"}, "observation": {"11": {"stimulus": 34, "trial": 11, "rt": 2027}, "10": {"stimulus": 14, "trial": 10, "rt": 1539}, "1": {"stimulus": 32, "trial": 1, "rt": 3300}, "0": {"stimulus": 14, "trial": 0, "rt": 6059}, "3": {"stimulus": 34, "trial": 3, "rt": 2388}, "2": {"stimulus": 16, "trial": 2, "rt": 3571}, "5": {"stimulus": 16, "trial": 5, "rt": 3219}, "4": {"stimulus": 34, "trial": 4, "rt": 2115}, "7": {"stimulus": 32, "trial": 7, "rt": 1396}, "6": {"stimulus": 14, "trial": 6, "rt": 4272}, "9": {"stimulus": 32, "trial": 9, "rt": 2747}, "8": {"stimulus": 16, "trial": 8, "rt": 1781}}, "generalization": {"56": {"stimulus": 38, "trial": 56, "rt": 611, "response": "Alpha"}, "77": {"stimulus": 30, "trial": 77, "rt": 636, "response": "Alpha"}, "54": {"stimulus": 44, "trial": 54, "rt": 1531, "response": "Alpha"}, "42": {"stimulus": 24, "trial": 42, "rt": 755, "response": "Alpha"}, "48": {"stimulus": 66, "trial": 48, "rt": 604, "response": "Alpha"}, "43": {"stimulus": 73, "trial": 43, "rt": 1291, "response": "Beta"}, "60": {"stimulus": 56, "trial": 60, "rt": 995, "response": "Alpha"}, "61": {"stimulus": 8, "trial": 61, "rt": 1740, "response": "Beta"}, "62": {"stimulus": 54, "trial": 62, "rt": 892, "response": "Alpha"}, "63": {"stimulus": 23, "trial": 63, "rt": 660, "response": "Alpha"}, "64": {"stimulus": 47, "trial": 64, "rt": 740, "response": "Alpha"}, "49": {"stimulus": 40, "trial": 49, "rt": 588, "response": "Alpha"}, "66": {"stimulus": 46, "trial": 66, "rt": 500, "response": "Alpha"}, "67": {"stimulus": 13, "trial": 67, "rt": 1067, "response": "Beta"}, "68": {"stimulus": 80, "trial": 68, "rt": 804, "response": "Beta"}, "69": {"stimulus": 68, "trial": 69, "rt": 1115, "response": "Alpha"}, "80": {"stimulus": 4, "trial": 80, "rt": 635, "response": "Beta"}, "52": {"stimulus": 2, "trial": 52, "rt": 995, "response": "Beta"}, "53": {"stimulus": 11, "trial": 53, "rt": 2976, "response": "Alpha"}, "24": {"stimulus": 62, "trial": 24, "rt": 604, "response": "Alpha"}, "25": {"stimulus": 21, "trial": 25, "rt": 883, "response": "Alpha"}, "26": {"stimulus": 31, "trial": 26, "rt": 596, "response": "Alpha"}, "27": {"stimulus": 16, "trial": 27, "rt": 1132, "response": "Beta"}, "20": {"stimulus": 7, "trial": 20, "rt": 1059, "response": "Beta"}, "21": {"stimulus": 0, "trial": 21, "rt": 723, "response": "Beta"}, "22": {"stimulus": 59, "trial": 22, "rt": 979, "response": "Alpha"}, "23": {"stimulus": 57, "trial": 23, "rt": 1980, "response": "Alpha"}, "46": {"stimulus": 55, "trial": 46, "rt": 740, "response": "Alpha"}, "47": {"stimulus": 39, "trial": 47, "rt": 748, "response": "Alpha"}, "44": {"stimulus": 37, "trial": 44, "rt": 899, "response": "Alpha"}, "45": {"stimulus": 76, "trial": 45, "rt": 1076, "response": "Beta"}, "28": {"stimulus": 67, "trial": 28, "rt": 2412, "response": "Alpha"}, "29": {"stimulus": 49, "trial": 29, "rt": 605, "response": "Alpha"}, "40": {"stimulus": 28, "trial": 40, "rt": 691, "response": "Alpha"}, "41": {"stimulus": 43, "trial": 41, "rt": 499, "response": "Alpha"}, "1": {"stimulus": 74, "trial": 1, "rt": 1819, "response": "Beta"}, "0": {"stimulus": 50, "trial": 0, "rt": 1523, "response": "Alpha"}, "3": {"stimulus": 6, "trial": 3, "rt": 1260, "response": "Beta"}, "2": {"stimulus": 78, "trial": 2, "rt": 1003, "response": "Beta"}, "5": {"stimulus": 19, "trial": 5, "rt": 907, "response": "Alpha"}, "4": {"stimulus": 75, "trial": 4, "rt": 1299, "response": "Beta"}, "7": {"stimulus": 41, "trial": 7, "rt": 988, "response": "Alpha"}, "6": {"stimulus": 34, "trial": 6, "rt": 796, "response": "Alpha"}, "9": {"stimulus": 35, "trial": 9, "rt": 1051, "response": "Alpha"}, "8": {"stimulus": 12, "trial": 8, "rt": 6780, "response": "Beta"}, "78": {"stimulus": 3, "trial": 78, "rt": 1148, "response": "Beta"}, "51": {"stimulus": 61, "trial": 51, "rt": 619, "response": "Alpha"}, "39": {"stimulus": 69, "trial": 39, "rt": 1067, "response": "Alpha"}, "65": {"stimulus": 42, "trial": 65, "rt": 628, "response": "Alpha"}, "76": {"stimulus": 53, "trial": 76, "rt": 676, "response": "Alpha"}, "75": {"stimulus": 45, "trial": 75, "rt": 532, "response": "Alpha"}, "38": {"stimulus": 25, "trial": 38, "rt": 835, "response": "Alpha"}, "73": {"stimulus": 58, "trial": 73, "rt": 916, "response": "Alpha"}, "72": {"stimulus": 77, "trial": 72, "rt": 2172, "response": "Beta"}, "71": {"stimulus": 1, "trial": 71, "rt": 947, "response": "Beta"}, "70": {"stimulus": 17, "trial": 70, "rt": 1275, "response": "Beta"}, "59": {"stimulus": 32, "trial": 59, "rt": 499, "response": "Alpha"}, "79": {"stimulus": 10, "trial": 79, "rt": 1667, "response": "Beta"}, "58": {"stimulus": 22, "trial": 58, "rt": 715, "response": "Alpha"}, "11": {"stimulus": 15, "trial": 11, "rt": 1235, "response": "Beta"}, "10": {"stimulus": 72, "trial": 10, "rt": 827, "response": "Beta"}, "13": {"stimulus": 26, "trial": 13, "rt": 1288, "response": "Alpha"}, "12": {"stimulus": 79, "trial": 12, "rt": 1228, "response": "Beta"}, "15": {"stimulus": 36, "trial": 15, "rt": 1395, "response": "Alpha"}, "14": {"stimulus": 5, "trial": 14, "rt": 1228, "response": "Beta"}, "17": {"stimulus": 29, "trial": 17, "rt": 644, "response": "Alpha"}, "16": {"stimulus": 51, "trial": 16, "rt": 1300, "response": "Alpha"}, "19": {"stimulus": 64, "trial": 19, "rt": 1052, "response": "Alpha"}, "18": {"stimulus": 33, "trial": 18, "rt": 613, "response": "Alpha"}, "31": {"stimulus": 65, "trial": 31, "rt": 875, "response": "Alpha"}, "30": {"stimulus": 20, "trial": 30, "rt": 1123, "response": "Alpha"}, "37": {"stimulus": 48, "trial": 37, "rt": 844, "response": "Alpha"}, "36": {"stimulus": 27, "trial": 36, "rt": 1524, "response": "Alpha"}, "35": {"stimulus": 70, "trial": 35, "rt": 732, "response": "Alpha"}, "34": {"stimulus": 71, "trial": 34, "rt": 1092, "response": "Alpha"}, "33": {"stimulus": 9, "trial": 33, "rt": 1899, "response": "Beta"}, "55": {"stimulus": 63, "trial": 55, "rt": 828, "response": "Alpha"}, "74": {"stimulus": 60, "trial": 74, "rt": 596, "response": "Alpha"}, "32": {"stimulus": 52, "trial": 32, "rt": 747, "response": "Alpha"}, "57": {"stimulus": 14, "trial": 57, "rt": 6331, "response": "Alpha"}, "50": {"stimulus": 18, "trial": 50, "rt": 892, "response": "Alpha"}}}2, "response": "Alpha"}}}