{"generation": {"1": {"stimulus": 75, "trial": 1, "rt": 5218}, "0": {"stimulus": 66, "trial": 0, "rt": 10168}, "3": {"stimulus": 32, "trial": 3, "rt": 6165}, "2": {"stimulus": 73, "trial": 2, "rt": 5754}}, "info": {"finish": 1488822913419, "participant": 175, "exposed": true, "lab": false, "start": 1488822701361, "counterbalance": 5, "condition": "Row", "browser": {"platform": "Win32", "userAgent": "Mozilla/5.0 (Windows NT 10.0; Win64; x64) AppleWebKit/537.36 (KHTML, like Gecko) Chrome/56.0.2924.87 Safari/537.36"}}, "experiment": {"Paradigm": "TACL", "Stimuli": "Size-Color Squares", "Experiment": "Generating-Categories"}, "observation": {"11": {"stimulus": 16, "trial": 11, "rt": 1686}, "10": {"stimulus": 10, "trial": 10, "rt": 1098}, "1": {"stimulus": 12, "trial": 1, "rt": 1499}, "0": {"stimulus": 10, "trial": 0, "rt": 2684}, "3": {"stimulus": 14, "trial": 3, "rt": 1097}, "2": {"stimulus": 16, "trial": 2, "rt": 1496}, "5": {"stimulus": 16, "trial": 5, "rt": 1086}, "4": {"stimulus": 10, "trial": 4, "rt": 1305}, "7": {"stimulus": 14, "trial": 7, "rt": 1579}, "6": {"stimulus": 12, "trial": 6, "rt": 1177}, "9": {"stimulus": 14, "trial": 9, "rt": 1073}, "8": {"stimulus": 12, "trial": 8, "rt": 1118}}, "generalization": {"56": {"stimulus": 54, "trial": 56, "rt": 1266, "response": "Beta"}, "77": {"stimulus": 34, "trial": 77, "rt": 522, "response": "Beta"}, "54": {"stimulus": 2, "trial": 54, "rt": 952, "response": "Alpha"}, "42": {"stimulus": 78, "trial": 42, "rt": 1342, "response": "Beta"}, "48": {"stimulus": 62, "trial": 48, "rt": 544, "response": "Beta"}, "43": {"stimulus": 20, "trial": 43, "rt": 1391, "response": "Alpha"}, "60": {"stimulus": 21, "trial": 60, "rt": 614, "response": "Alpha"}, "61": {"stimulus": 63, "trial": 61, "rt": 718, "response": "Beta"}, "62": {"stimulus": 32, "trial": 62, "rt": 2376, "response": "Beta"}, "63": {"stimulus": 76, "trial": 63, "rt": 1618, "response": "Beta"}, "64": {"stimulus": 0, "trial": 64, "rt": 1544, "response": "Alpha"}, "49": {"stimulus": 56, "trial": 49, "rt": 484, "response": "Beta"}, "66": {"stimulus": 25, "trial": 66, "rt": 1066, "response": "Beta"}, "67": {"stimulus": 22, "trial": 67, "rt": 1360, "response": "Beta"}, "68": {"stimulus": 23, "trial": 68, "rt": 941, "response": "Beta"}, "69": {"stimulus": 39, "trial": 69, "rt": 823, "response": "Beta"}, "80": {"stimulus": 72, "trial": 80, "rt": 1279, "response": "Beta"}, "52": {"stimulus": 73, "trial": 52, "rt": 1122, "response": "Beta"}, "53": {"stimulus": 55, "trial": 53, "rt": 850, "response": "Beta"}, "24": {"stimulus": 18, "trial": 24, "rt": 912, "response": "Alpha"}, "25": {"stimulus": 51, "trial": 25, "rt": 1017, "response": "Beta"}, "26": {"stimulus": 33, "trial": 26, "rt": 1455, "response": "Alpha"}, "27": {"stimulus": 69, "trial": 27, "rt": 826, "response": "Beta"}, "20": {"stimulus": 37, "trial": 20, "rt": 1065, "response": "Beta"}, "21": {"stimulus": 53, "trial": 21, "rt": 614, "response": "Beta"}, "22": {"stimulus": 59, "trial": 22, "rt": 820, "response": "Beta"}, "23": {"stimulus": 31, "trial": 23, "rt": 1576, "response": "Alpha"}, "46": {"stimulus": 41, "trial": 46, "rt": 1232, "response": "Beta"}, "47": {"stimulus": 52, "trial": 47, "rt": 884, "response": "Beta"}, "44": {"stimulus": 79, "trial": 44, "rt": 850, "response": "Beta"}, "45": {"stimulus": 7, "trial": 45, "rt": 1752, "response": "Alpha"}, "28": {"stimulus": 30, "trial": 28, "rt": 1097, "response": "Alpha"}, "29": {"stimulus": 13, "trial": 29, "rt": 2667, "response": "Alpha"}, "40": {"stimulus": 27, "trial": 40, "rt": 2037, "response": "Beta"}, "41": {"stimulus": 14, "trial": 41, "rt": 1096, "response": "Alpha"}, "1": {"stimulus": 36, "trial": 1, "rt": 1642, "response": "Alpha"}, "0": {"stimulus": 40, "trial": 0, "rt": 3538, "response": "Alpha"}, "3": {"stimulus": 5, "trial": 3, "rt": 1032, "response": "Alpha"}, "2": {"stimulus": 74, "trial": 2, "rt": 1577, "response": "Beta"}, "5": {"stimulus": 67, "trial": 5, "rt": 1176, "response": "Beta"}, "4": {"stimulus": 24, "trial": 4, "rt": 1838, "response": "Alpha"}, "7": {"stimulus": 80, "trial": 7, "rt": 1233, "response": "Beta"}, "6": {"stimulus": 26, "trial": 6, "rt": 1778, "response": "Alpha"}, "9": {"stimulus": 60, "trial": 9, "rt": 2074, "response": "Beta"}, "8": {"stimulus": 46, "trial": 8, "rt": 925, "response": "Alpha"}, "78": {"stimulus": 35, "trial": 78, "rt": 548, "response": "Beta"}, "51": {"stimulus": 19, "trial": 51, "rt": 1972, "response": "Beta"}, "39": {"stimulus": 47, "trial": 39, "rt": 817, "response": "Beta"}, "65": {"stimulus": 42, "trial": 65, "rt": 1022, "response": "Beta"}, "76": {"stimulus": 44, "trial": 76, "rt": 485, "response": "Beta"}, "75": {"stimulus": 66, "trial": 75, "rt": 550, "response": "Beta"}, "38": {"stimulus": 3, "trial": 38, "rt": 822, "response": "Alpha"}, "73": {"stimulus": 43, "trial": 73, "rt": 791, "response": "Beta"}, "72": {"stimulus": 29, "trial": 72, "rt": 808, "response": "Beta"}, "71": {"stimulus": 45, "trial": 71, "rt": 1015, "response": "Beta"}, "70": {"stimulus": 17, "trial": 70, "rt": 1022, "response": "Alpha"}, "59": {"stimulus": 10, "trial": 59, "rt": 711, "response": "Alpha"}, "79": {"stimulus": 11, "trial": 79, "rt": 1070, "response": "Alpha"}, "58": {"stimulus": 16, "trial": 58, "rt": 1153, "response": "Alpha"}, "11": {"stimulus": 4, "trial": 11, "rt": 839, "response": "Alpha"}, "10": {"stimulus": 71, "trial": 10, "rt": 997, "response": "Beta"}, "13": {"stimulus": 58, "trial": 13, "rt": 1343, "response": "Beta"}, "12": {"stimulus": 65, "trial": 12, "rt": 916, "response": "Beta"}, "15": {"stimulus": 77, "trial": 15, "rt": 1388, "response": "Beta"}, "14": {"stimulus": 61, "trial": 14, "rt": 972, "response": "Beta"}, "17": {"stimulus": 64, "trial": 17, "rt": 1834, "response": "Beta"}, "16": {"stimulus": 9, "trial": 16, "rt": 859, "response": "Alpha"}, "19": {"stimulus": 12, "trial": 19, "rt": 475, "response": "Beta"}, "18": {"stimulus": 6, "trial": 18, "rt": 868, "response": "Alpha"}, "31": {"stimulus": 28, "trial": 31, "rt": 1138, "response": "Alpha"}, "30": {"stimulus": 70, "trial": 30, "rt": 1091, "response": "Beta"}, "37": {"stimulus": 57, "trial": 37, "rt": 965, "response": "Beta"}, "36": {"stimulus": 8, "trial": 36, "rt": 1103, "response": "Alpha"}, "35": {"stimulus": 48, "trial": 35, "rt": 1633, "response": "Beta"}, "34": {"stimulus": 1, "trial": 34, "rt": 1252, "response": "Alpha"}, "33": {"stimulus": 68, "trial": 33, "rt": 1323, "response": "Beta"}, "55": {"stimulus": 15, "trial": 55, "rt": 553, "response": "Alpha"}, "74": {"stimulus": 50, "trial": 74, "rt": 688, "response": "Beta"}, "32": {"stimulus": 38, "trial": 32, "rt": 568, "response": "Beta"}, "57": {"stimulus": 49, "trial": 57, "rt": 1276, "response": "Beta"}, "50": {"stimulus": 75, "trial": 50, "rt": 498, "response": "Beta"}}}