{"generation": {"1": {"stimulus": 77, "trial": 1, "rt": 6178}, "0": {"stimulus": 75, "trial": 0, "rt": 18443}, "3": {"stimulus": 72, "trial": 3, "rt": 3581}, "2": {"stimulus": 80, "trial": 2, "rt": 3097}}, "info": {"finish": 1488822904689, "participant": 177, "exposed": true, "lab": false, "start": 1488822701029, "counterbalance": 7, "condition": "Row", "browser": {"platform": "Win32", "userAgent": "Mozilla/5.0 (Windows NT 6.1; WOW64) AppleWebKit/537.36 (KHTML, like Gecko) Chrome/56.0.2924.87 Safari/537.36"}}, "experiment": {"Paradigm": "TACL", "Stimuli": "Size-Color Squares", "Experiment": "Generating-Categories"}, "observation": {"11": {"stimulus": 12, "trial": 11, "rt": 1357}, "10": {"stimulus": 16, "trial": 10, "rt": 1186}, "1": {"stimulus": 12, "trial": 1, "rt": 2185}, "0": {"stimulus": 14, "trial": 0, "rt": 3607}, "3": {"stimulus": 10, "trial": 3, "rt": 2337}, "2": {"stimulus": 16, "trial": 2, "rt": 1801}, "5": {"stimulus": 10, "trial": 5, "rt": 1602}, "4": {"stimulus": 12, "trial": 4, "rt": 1801}, "7": {"stimulus": 14, "trial": 7, "rt": 1667}, "6": {"stimulus": 16, "trial": 6, "rt": 1604}, "9": {"stimulus": 14, "trial": 9, "rt": 1562}, "8": {"stimulus": 10, "trial": 8, "rt": 1600}}, "generalization": {"56": {"stimulus": 47, "trial": 56, "rt": 522, "response": "Beta"}, "77": {"stimulus": 52, "trial": 77, "rt": 611, "response": "Beta"}, "54": {"stimulus": 35, "trial": 54, "rt": 902, "response": "Beta"}, "42": {"stimulus": 60, "trial": 42, "rt": 948, "response": "Beta"}, "48": {"stimulus": 13, "trial": 48, "rt": 965, "response": "Alpha"}, "43": {"stimulus": 40, "trial": 43, "rt": 690, "response": "Beta"}, "60": {"stimulus": 51, "trial": 60, "rt": 478, "response": "Beta"}, "61": {"stimulus": 42, "trial": 61, "rt": 492, "response": "Beta"}, "62": {"stimulus": 72, "trial": 62, "rt": 957, "response": "Beta"}, "63": {"stimulus": 24, "trial": 63, "rt": 1084, "response": "Alpha"}, "64": {"stimulus": 31, "trial": 64, "rt": 962, "response": "Beta"}, "49": {"stimulus": 54, "trial": 49, "rt": 945, "response": "Beta"}, "66": {"stimulus": 9, "trial": 66, "rt": 795, "response": "Alpha"}, "67": {"stimulus": 44, "trial": 67, "rt": 1473, "response": "Beta"}, "68": {"stimulus": 2, "trial": 68, "rt": 842, "response": "Alpha"}, "69": {"stimulus": 22, "trial": 69, "rt": 1278, "response": "Beta"}, "80": {"stimulus": 53, "trial": 80, "rt": 951, "response": "Beta"}, "52": {"stimulus": 17, "trial": 52, "rt": 795, "response": "Alpha"}, "53": {"stimulus": 75, "trial": 53, "rt": 802, "response": "Beta"}, "24": {"stimulus": 38, "trial": 24, "rt": 977, "response": "Alpha"}, "25": {"stimulus": 80, "trial": 25, "rt": 903, "response": "Beta"}, "26": {"stimulus": 45, "trial": 26, "rt": 1175, "response": "Beta"}, "27": {"stimulus": 18, "trial": 27, "rt": 1240, "response": "Alpha"}, "20": {"stimulus": 46, "trial": 20, "rt": 893, "response": "Beta"}, "21": {"stimulus": 28, "trial": 21, "rt": 790, "response": "Beta"}, "22": {"stimulus": 21, "trial": 22, "rt": 993, "response": "Alpha"}, "23": {"stimulus": 77, "trial": 23, "rt": 938, "response": "Beta"}, "46": {"stimulus": 11, "trial": 46, "rt": 911, "response": "Alpha"}, "47": {"stimulus": 3, "trial": 47, "rt": 497, "response": "Alpha"}, "44": {"stimulus": 73, "trial": 44, "rt": 665, "response": "Beta"}, "45": {"stimulus": 69, "trial": 45, "rt": 507, "response": "Beta"}, "28": {"stimulus": 57, "trial": 28, "rt": 775, "response": "Beta"}, "29": {"stimulus": 1, "trial": 29, "rt": 843, "response": "Alpha"}, "40": {"stimulus": 15, "trial": 40, "rt": 592, "response": "Alpha"}, "41": {"stimulus": 12, "trial": 41, "rt": 592, "response": "Alpha"}, "1": {"stimulus": 67, "trial": 1, "rt": 1085, "response": "Beta"}, "0": {"stimulus": 23, "trial": 0, "rt": 3257, "response": "Alpha"}, "3": {"stimulus": 58, "trial": 3, "rt": 910, "response": "Beta"}, "2": {"stimulus": 0, "trial": 2, "rt": 2260, "response": "Alpha"}, "5": {"stimulus": 65, "trial": 5, "rt": 842, "response": "Beta"}, "4": {"stimulus": 6, "trial": 4, "rt": 1036, "response": "Alpha"}, "7": {"stimulus": 43, "trial": 7, "rt": 1461, "response": "Beta"}, "6": {"stimulus": 7, "trial": 6, "rt": 1095, "response": "Alpha"}, "9": {"stimulus": 78, "trial": 9, "rt": 813, "response": "Beta"}, "8": {"stimulus": 39, "trial": 8, "rt": 1173, "response": "Beta"}, "78": {"stimulus": 5, "trial": 78, "rt": 805, "response": "Alpha"}, "51": {"stimulus": 64, "trial": 51, "rt": 773, "response": "Beta"}, "39": {"stimulus": 14, "trial": 39, "rt": 792, "response": "Alpha"}, "65": {"stimulus": 61, "trial": 65, "rt": 722, "response": "Beta"}, "76": {"stimulus": 25, "trial": 76, "rt": 725, "response": "Beta"}, "75": {"stimulus": 68, "trial": 75, "rt": 687, "response": "Beta"}, "38": {"stimulus": 59, "trial": 38, "rt": 518, "response": "Beta"}, "73": {"stimulus": 8, "trial": 73, "rt": 1025, "response": "Alpha"}, "72": {"stimulus": 33, "trial": 72, "rt": 658, "response": "Beta"}, "71": {"stimulus": 70, "trial": 71, "rt": 755, "response": "Beta"}, "70": {"stimulus": 20, "trial": 70, "rt": 647, "response": "Beta"}, "59": {"stimulus": 27, "trial": 59, "rt": 1368, "response": "Beta"}, "79": {"stimulus": 16, "trial": 79, "rt": 1281, "response": "Beta"}, "58": {"stimulus": 48, "trial": 58, "rt": 479, "response": "Beta"}, "11": {"stimulus": 34, "trial": 11, "rt": 1661, "response": "Beta"}, "10": {"stimulus": 71, "trial": 10, "rt": 1135, "response": "Beta"}, "13": {"stimulus": 62, "trial": 13, "rt": 743, "response": "Beta"}, "12": {"stimulus": 37, "trial": 12, "rt": 967, "response": "Beta"}, "15": {"stimulus": 19, "trial": 15, "rt": 970, "response": "Alpha"}, "14": {"stimulus": 76, "trial": 14, "rt": 551, "response": "Beta"}, "17": {"stimulus": 55, "trial": 17, "rt": 890, "response": "Beta"}, "16": {"stimulus": 10, "trial": 16, "rt": 548, "response": "Alpha"}, "19": {"stimulus": 56, "trial": 19, "rt": 582, "response": "Beta"}, "18": {"stimulus": 66, "trial": 18, "rt": 630, "response": "Beta"}, "31": {"stimulus": 32, "trial": 31, "rt": 757, "response": "Beta"}, "30": {"stimulus": 49, "trial": 30, "rt": 878, "response": "Beta"}, "37": {"stimulus": 63, "trial": 37, "rt": 728, "response": "Beta"}, "36": {"stimulus": 30, "trial": 36, "rt": 1161, "response": "Beta"}, "35": {"stimulus": 74, "trial": 35, "rt": 940, "response": "Beta"}, "34": {"stimulus": 4, "trial": 34, "rt": 857, "response": "Alpha"}, "33": {"stimulus": 41, "trial": 33, "rt": 1104, "response": "Beta"}, "55": {"stimulus": 36, "trial": 55, "rt": 695, "response": "Beta"}, "74": {"stimulus": 50, "trial": 74, "rt": 816, "response": "Beta"}, "32": {"stimulus": 29, "trial": 32, "rt": 1176, "response": "Beta"}, "57": {"stimulus": 79, "trial": 57, "rt": 513, "response": "Beta"}, "50": {"stimulus": 26, "trial": 50, "rt": 866, "response": "Alpha"}}}