{"generation": {"1": {"stimulus": 37, "trial": 1, "rt": 10783}, "0": {"stimulus": 27, "trial": 0, "rt": 9421}, "3": {"stimulus": 36, "trial": 3, "rt": 6293}, "2": {"stimulus": 54, "trial": 2, "rt": 4581}}, "info": {"finish": 1488823180784, "participant": 178, "exposed": true, "lab": false, "start": 1488822733202, "counterbalance": 5, "condition": "Cluster", "browser": {"platform": "Win32", "userAgent": "Mozilla/5.0 (Windows NT 10.0; WOW64) AppleWebKit/537.36 (KHTML, like Gecko) Chrome/56.0.2924.87 Safari/537.36"}}, "experiment": {"Paradigm": "TACL", "Stimuli": "Size-Color Squares", "Experiment": "Generating-Categories"}, "observation": {"11": {"stimulus": 16, "trial": 11, "rt": 717}, "10": {"stimulus": 32, "trial": 10, "rt": 736}, "1": {"stimulus": 34, "trial": 1, "rt": 1635}, "0": {"stimulus": 32, "trial": 0, "rt": 6747}, "3": {"stimulus": 14, "trial": 3, "rt": 1202}, "2": {"stimulus": 16, "trial": 2, "rt": 1227}, "5": {"stimulus": 16, "trial": 5, "rt": 652}, "4": {"stimulus": 34, "trial": 4, "rt": 1058}, "7": {"stimulus": 32, "trial": 7, "rt": 694}, "6": {"stimulus": 14, "trial": 6, "rt": 640}, "9": {"stimulus": 14, "trial": 9, "rt": 1059}, "8": {"stimulus": 34, "trial": 8, "rt": 1429}}, "generalization": {"56": {"stimulus": 25, "trial": 56, "rt": 689, "response": "Alpha"}, "77": {"stimulus": 48, "trial": 77, "rt": 1111, "response": "Alpha"}, "54": {"stimulus": 31, "trial": 54, "rt": 1465, "response": "Alpha"}, "42": {"stimulus": 4, "trial": 42, "rt": 1244, "response": "Alpha"}, "48": {"stimulus": 21, "trial": 48, "rt": 3658, "response": "Alpha"}, "43": {"stimulus": 71, "trial": 43, "rt": 863, "response": "Alpha"}, "60": {"stimulus": 0, "trial": 60, "rt": 826, "response": "Beta"}, "61": {"stimulus": 35, "trial": 61, "rt": 1078, "response": "Alpha"}, "62": {"stimulus": 27, "trial": 62, "rt": 1053, "response": "Beta"}, "63": {"stimulus": 49, "trial": 63, "rt": 1116, "response": "Beta"}, "64": {"stimulus": 3, "trial": 64, "rt": 1131, "response": "Alpha"}, "49": {"stimulus": 38, "trial": 49, "rt": 904, "response": "Alpha"}, "66": {"stimulus": 24, "trial": 66, "rt": 779, "response": "Alpha"}, "67": {"stimulus": 12, "trial": 67, "rt": 984, "response": "Alpha"}, "68": {"stimulus": 9, "trial": 68, "rt": 1215, "response": "Beta"}, "69": {"stimulus": 30, "trial": 69, "rt": 1637, "response": "Alpha"}, "80": {"stimulus": 22, "trial": 80, "rt": 1059, "response": "Alpha"}, "52": {"stimulus": 51, "trial": 52, "rt": 615, "response": "Alpha"}, "53": {"stimulus": 46, "trial": 53, "rt": 1110, "response": "Beta"}, "24": {"stimulus": 57, "trial": 24, "rt": 1048, "response": "Beta"}, "25": {"stimulus": 14, "trial": 25, "rt": 1079, "response": "Alpha"}, "26": {"stimulus": 2, "trial": 26, "rt": 1107, "response": "Beta"}, "27": {"stimulus": 39, "trial": 27, "rt": 711, "response": "Beta"}, "20": {"stimulus": 62, "trial": 20, "rt": 603, "response": "Alpha"}, "21": {"stimulus": 11, "trial": 21, "rt": 1520, "response": "Beta"}, "22": {"stimulus": 34, "trial": 22, "rt": 647, "response": "Alpha"}, "23": {"stimulus": 17, "trial": 23, "rt": 729, "response": "Alpha"}, "46": {"stimulus": 5, "trial": 46, "rt": 1073, "response": "Beta"}, "47": {"stimulus": 45, "trial": 47, "rt": 1139, "response": "Beta"}, "44": {"stimulus": 41, "trial": 44, "rt": 645, "response": "Alpha"}, "45": {"stimulus": 74, "trial": 45, "rt": 1215, "response": "Beta"}, "28": {"stimulus": 73, "trial": 28, "rt": 781, "response": "Beta"}, "29": {"stimulus": 33, "trial": 29, "rt": 1161, "response": "Alpha"}, "40": {"stimulus": 16, "trial": 40, "rt": 804, "response": "Alpha"}, "41": {"stimulus": 26, "trial": 41, "rt": 651, "response": "Alpha"}, "1": {"stimulus": 23, "trial": 1, "rt": 1217, "response": "Alpha"}, "0": {"stimulus": 78, "trial": 0, "rt": 2611, "response": "Alpha"}, "3": {"stimulus": 19, "trial": 3, "rt": 857, "response": "Beta"}, "2": {"stimulus": 36, "trial": 2, "rt": 1125, "response": "Beta"}, "5": {"stimulus": 55, "trial": 5, "rt": 1488, "response": "Beta"}, "4": {"stimulus": 69, "trial": 4, "rt": 1087, "response": "Alpha"}, "7": {"stimulus": 61, "trial": 7, "rt": 813, "response": "Alpha"}, "6": {"stimulus": 79, "trial": 6, "rt": 723, "response": "Alpha"}, "9": {"stimulus": 44, "trial": 9, "rt": 922, "response": "Alpha"}, "8": {"stimulus": 18, "trial": 8, "rt": 1221, "response": "Beta"}, "78": {"stimulus": 63, "trial": 78, "rt": 1004, "response": "Beta"}, "51": {"stimulus": 80, "trial": 51, "rt": 791, "response": "Alpha"}, "39": {"stimulus": 8, "trial": 39, "rt": 1236, "response": "Alpha"}, "65": {"stimulus": 10, "trial": 65, "rt": 1079, "response": "Alpha"}, "76": {"stimulus": 77, "trial": 76, "rt": 938, "response": "Alpha"}, "75": {"stimulus": 29, "trial": 75, "rt": 853, "response": "Beta"}, "38": {"stimulus": 37, "trial": 38, "rt": 1111, "response": "Beta"}, "73": {"stimulus": 43, "trial": 73, "rt": 777, "response": "Alpha"}, "72": {"stimulus": 70, "trial": 72, "rt": 799, "response": "Alpha"}, "71": {"stimulus": 20, "trial": 71, "rt": 1537, "response": "Beta"}, "70": {"stimulus": 68, "trial": 70, "rt": 1220, "response": "Alpha"}, "59": {"stimulus": 72, "trial": 59, "rt": 1910, "response": "Beta"}, "79": {"stimulus": 1, "trial": 79, "rt": 1055, "response": "Beta"}, "58": {"stimulus": 13, "trial": 58, "rt": 1064, "response": "Alpha"}, "11": {"stimulus": 75, "trial": 11, "rt": 1264, "response": "Beta"}, "10": {"stimulus": 32, "trial": 10, "rt": 1161, "response": "Alpha"}, "13": {"stimulus": 7, "trial": 13, "rt": 626, "response": "Alpha"}, "12": {"stimulus": 6, "trial": 12, "rt": 714, "response": "Alpha"}, "15": {"stimulus": 76, "trial": 15, "rt": 1019, "response": "Beta"}, "14": {"stimulus": 53, "trial": 14, "rt": 608, "response": "Alpha"}, "17": {"stimulus": 54, "trial": 17, "rt": 1179, "response": "Beta"}, "16": {"stimulus": 67, "trial": 16, "rt": 1540, "response": "Beta"}, "19": {"stimulus": 60, "trial": 19, "rt": 860, "response": "Alpha"}, "18": {"stimulus": 47, "trial": 18, "rt": 835, "response": "Beta"}, "31": {"stimulus": 52, "trial": 31, "rt": 1215, "response": "Alpha"}, "30": {"stimulus": 59, "trial": 30, "rt": 843, "response": "Alpha"}, "37": {"stimulus": 40, "trial": 37, "rt": 2145, "response": "Alpha"}, "36": {"stimulus": 50, "trial": 36, "rt": 1223, "response": "Beta"}, "35": {"stimulus": 56, "trial": 35, "rt": 819, "response": "Beta"}, "34": {"stimulus": 65, "trial": 34, "rt": 916, "response": "Beta"}, "33": {"stimulus": 28, "trial": 33, "rt": 1224, "response": "Beta"}, "55": {"stimulus": 66, "trial": 55, "rt": 788, "response": "Alpha"}, "74": {"stimulus": 64, "trial": 74, "rt": 1671, "response": "Beta"}, "32": {"stimulus": 42, "trial": 32, "rt": 1253, "response": "Alpha"}, "57": {"stimulus": 15, "trial": 57, "rt": 730, "response": "Alpha"}, "50": {"stimulus": 58, "trial": 50, "rt": 701, "response": "Alpha"}}}