{"generation": {"1": {"stimulus": 80, "trial": 1, "rt": 14141}, "0": {"stimulus": 72, "trial": 0, "rt": 16276}, "3": {"stimulus": 77, "trial": 3, "rt": 5124}, "2": {"stimulus": 74, "trial": 2, "rt": 14461}}, "info": {"finish": 1488823055555, "participant": 179, "exposed": true, "lab": false, "start": 1488822844089, "counterbalance": 0, "condition": "Row", "browser": {"platform": "Win32", "userAgent": "Mozilla/5.0 (Windows NT 10.0; Win64; x64) AppleWebKit/537.36 (KHTML, like Gecko) Chrome/56.0.2924.87 Safari/537.36"}}, "experiment": {"Paradigm": "TACL", "Stimuli": "Size-Color Squares", "Experiment": "Generating-Categories"}, "observation": {"11": {"stimulus": 12, "trial": 11, "rt": 3602}, "10": {"stimulus": 16, "trial": 10, "rt": 1499}, "1": {"stimulus": 16, "trial": 1, "rt": 2080}, "0": {"stimulus": 10, "trial": 0, "rt": 2230}, "3": {"stimulus": 12, "trial": 3, "rt": 1769}, "2": {"stimulus": 14, "trial": 2, "rt": 1405}, "5": {"stimulus": 16, "trial": 5, "rt": 1297}, "4": {"stimulus": 10, "trial": 4, "rt": 1791}, "7": {"stimulus": 12, "trial": 7, "rt": 1113}, "6": {"stimulus": 14, "trial": 6, "rt": 1201}, "9": {"stimulus": 14, "trial": 9, "rt": 1476}, "8": {"stimulus": 10, "trial": 8, "rt": 1287}}, "generalization": {"56": {"stimulus": 45, "trial": 56, "rt": 844, "response": "Alpha"}, "77": {"stimulus": 14, "trial": 77, "rt": 557, "response": "Alpha"}, "54": {"stimulus": 39, "trial": 54, "rt": 576, "response": "Alpha"}, "42": {"stimulus": 76, "trial": 42, "rt": 1727, "response": "Beta"}, "48": {"stimulus": 21, "trial": 48, "rt": 546, "response": "Alpha"}, "43": {"stimulus": 37, "trial": 43, "rt": 791, "response": "Alpha"}, "60": {"stimulus": 8, "trial": 60, "rt": 981, "response": "Alpha"}, "61": {"stimulus": 64, "trial": 61, "rt": 708, "response": "Alpha"}, "62": {"stimulus": 2, "trial": 62, "rt": 594, "response": "Alpha"}, "63": {"stimulus": 80, "trial": 63, "rt": 1324, "response": "Beta"}, "64": {"stimulus": 6, "trial": 64, "rt": 2426, "response": "Alpha"}, "49": {"stimulus": 70, "trial": 49, "rt": 739, "response": "Alpha"}, "66": {"stimulus": 15, "trial": 66, "rt": 599, "response": "Alpha"}, "67": {"stimulus": 33, "trial": 67, "rt": 570, "response": "Alpha"}, "68": {"stimulus": 1, "trial": 68, "rt": 674, "response": "Alpha"}, "69": {"stimulus": 51, "trial": 69, "rt": 1027, "response": "Alpha"}, "80": {"stimulus": 74, "trial": 80, "rt": 2008, "response": "Beta"}, "52": {"stimulus": 57, "trial": 52, "rt": 622, "response": "Alpha"}, "53": {"stimulus": 38, "trial": 53, "rt": 555, "response": "Alpha"}, "24": {"stimulus": 36, "trial": 24, "rt": 558, "response": "Alpha"}, "25": {"stimulus": 58, "trial": 25, "rt": 555, "response": "Alpha"}, "26": {"stimulus": 68, "trial": 26, "rt": 671, "response": "Alpha"}, "27": {"stimulus": 19, "trial": 27, "rt": 551, "response": "Alpha"}, "20": {"stimulus": 30, "trial": 20, "rt": 525, "response": "Alpha"}, "21": {"stimulus": 7, "trial": 21, "rt": 648, "response": "Alpha"}, "22": {"stimulus": 43, "trial": 22, "rt": 575, "response": "Alpha"}, "23": {"stimulus": 44, "trial": 23, "rt": 533, "response": "Alpha"}, "46": {"stimulus": 79, "trial": 46, "rt": 1098, "response": "Beta"}, "47": {"stimulus": 41, "trial": 47, "rt": 843, "response": "Alpha"}, "44": {"stimulus": 46, "trial": 44, "rt": 559, "response": "Alpha"}, "45": {"stimulus": 23, "trial": 45, "rt": 869, "response": "Alpha"}, "28": {"stimulus": 78, "trial": 28, "rt": 1313, "response": "Beta"}, "29": {"stimulus": 59, "trial": 29, "rt": 1077, "response": "Alpha"}, "40": {"stimulus": 66, "trial": 40, "rt": 1286, "response": "Alpha"}, "41": {"stimulus": 69, "trial": 41, "rt": 622, "response": "Alpha"}, "1": {"stimulus": 72, "trial": 1, "rt": 1380, "response": "Beta"}, "0": {"stimulus": 10, "trial": 0, "rt": 2490, "response": "Alpha"}, "3": {"stimulus": 0, "trial": 3, "rt": 1379, "response": "Alpha"}, "2": {"stimulus": 27, "trial": 2, "rt": 1137, "response": "Alpha"}, "5": {"stimulus": 20, "trial": 5, "rt": 660, "response": "Alpha"}, "4": {"stimulus": 31, "trial": 4, "rt": 1122, "response": "Alpha"}, "7": {"stimulus": 61, "trial": 7, "rt": 1649, "response": "Alpha"}, "6": {"stimulus": 12, "trial": 6, "rt": 614, "response": "Alpha"}, "9": {"stimulus": 22, "trial": 9, "rt": 570, "response": "Alpha"}, "8": {"stimulus": 17, "trial": 8, "rt": 628, "response": "Alpha"}, "78": {"stimulus": 75, "trial": 78, "rt": 1367, "response": "Beta"}, "51": {"stimulus": 52, "trial": 51, "rt": 534, "response": "Alpha"}, "39": {"stimulus": 11, "trial": 39, "rt": 536, "response": "Alpha"}, "65": {"stimulus": 32, "trial": 65, "rt": 589, "response": "Alpha"}, "76": {"stimulus": 56, "trial": 76, "rt": 558, "response": "Alpha"}, "75": {"stimulus": 62, "trial": 75, "rt": 658, "response": "Alpha"}, "38": {"stimulus": 9, "trial": 38, "rt": 565, "response": "Alpha"}, "73": {"stimulus": 26, "trial": 73, "rt": 591, "response": "Alpha"}, "72": {"stimulus": 71, "trial": 72, "rt": 646, "response": "Alpha"}, "71": {"stimulus": 60, "trial": 71, "rt": 903, "response": "Alpha"}, "70": {"stimulus": 29, "trial": 70, "rt": 546, "response": "Alpha"}, "59": {"stimulus": 25, "trial": 59, "rt": 623, "response": "Alpha"}, "79": {"stimulus": 49, "trial": 79, "rt": 1473, "response": "Alpha"}, "58": {"stimulus": 47, "trial": 58, "rt": 504, "response": "Alpha"}, "11": {"stimulus": 24, "trial": 11, "rt": 573, "response": "Alpha"}, "10": {"stimulus": 53, "trial": 10, "rt": 537, "response": "Alpha"}, "13": {"stimulus": 48, "trial": 13, "rt": 1098, "response": "Alpha"}, "12": {"stimulus": 73, "trial": 12, "rt": 1245, "response": "Beta"}, "15": {"stimulus": 16, "trial": 15, "rt": 505, "response": "Alpha"}, "14": {"stimulus": 5, "trial": 14, "rt": 603, "response": "Alpha"}, "17": {"stimulus": 34, "trial": 17, "rt": 548, "response": "Alpha"}, "16": {"stimulus": 63, "trial": 16, "rt": 889, "response": "Alpha"}, "19": {"stimulus": 42, "trial": 19, "rt": 612, "response": "Alpha"}, "18": {"stimulus": 28, "trial": 18, "rt": 584, "response": "Alpha"}, "31": {"stimulus": 77, "trial": 31, "rt": 1159, "response": "Beta"}, "30": {"stimulus": 50, "trial": 30, "rt": 554, "response": "Alpha"}, "37": {"stimulus": 35, "trial": 37, "rt": 546, "response": "Alpha"}, "36": {"stimulus": 13, "trial": 36, "rt": 573, "response": "Alpha"}, "35": {"stimulus": 65, "trial": 35, "rt": 631, "response": "Alpha"}, "34": {"stimulus": 3, "trial": 34, "rt": 514, "response": "Alpha"}, "33": {"stimulus": 54, "trial": 33, "rt": 586, "response": "Alpha"}, "55": {"stimulus": 40, "trial": 55, "rt": 565, "response": "Alpha"}, "74": {"stimulus": 18, "trial": 74, "rt": 574, "response": "Alpha"}, "32": {"stimulus": 4, "trial": 32, "rt": 904, "response": "Alpha"}, "57": {"stimulus": 67, "trial": 57, "rt": 1249, "response": "Alpha"}, "50": {"stimulus": 55, "trial": 50, "rt": 573, "response": "Alpha"}}}