{"generation": {"1": {"stimulus": 72, "trial": 1, "rt": 12640}, "0": {"stimulus": 80, "trial": 0, "rt": 26454}, "3": {"stimulus": 77, "trial": 3, "rt": 7777}, "2": {"stimulus": 78, "trial": 2, "rt": 8365}}, "info": {"finish": 1488823088959, "participant": 180, "exposed": true, "lab": false, "start": 1488822757906, "counterbalance": 7, "condition": "Row", "browser": {"platform": "Win32", "userAgent": "Mozilla/5.0 (Windows NT 6.1; WOW64) AppleWebKit/537.36 (KHTML, like Gecko) Chrome/56.0.2924.87 Safari/537.36"}}, "experiment": {"Paradigm": "TACL", "Stimuli": "Size-Color Squares", "Experiment": "Generating-Categories"}, "observation": {"11": {"stimulus": 12, "trial": 11, "rt": 1742}, "10": {"stimulus": 16, "trial": 10, "rt": 1879}, "1": {"stimulus": 12, "trial": 1, "rt": 5866}, "0": {"stimulus": 10, "trial": 0, "rt": 7818}, "3": {"stimulus": 16, "trial": 3, "rt": 3299}, "2": {"stimulus": 14, "trial": 2, "rt": 4203}, "5": {"stimulus": 16, "trial": 5, "rt": 2516}, "4": {"stimulus": 14, "trial": 4, "rt": 2671}, "7": {"stimulus": 10, "trial": 7, "rt": 2618}, "6": {"stimulus": 12, "trial": 6, "rt": 3826}, "9": {"stimulus": 14, "trial": 9, "rt": 1876}, "8": {"stimulus": 10, "trial": 8, "rt": 2234}}, "generalization": {"56": {"stimulus": 62, "trial": 56, "rt": 1252, "response": "Beta"}, "77": {"stimulus": 53, "trial": 77, "rt": 944, "response": "Alpha"}, "54": {"stimulus": 21, "trial": 54, "rt": 1287, "response": "Alpha"}, "42": {"stimulus": 14, "trial": 42, "rt": 831, "response": "Alpha"}, "48": {"stimulus": 39, "trial": 48, "rt": 1307, "response": "Alpha"}, "43": {"stimulus": 72, "trial": 43, "rt": 1223, "response": "Beta"}, "60": {"stimulus": 47, "trial": 60, "rt": 897, "response": "Beta"}, "61": {"stimulus": 60, "trial": 61, "rt": 788, "response": "Beta"}, "62": {"stimulus": 70, "trial": 62, "rt": 777, "response": "Beta"}, "63": {"stimulus": 27, "trial": 63, "rt": 1330, "response": "Alpha"}, "64": {"stimulus": 77, "trial": 64, "rt": 1053, "response": "Beta"}, "49": {"stimulus": 68, "trial": 49, "rt": 1058, "response": "Beta"}, "66": {"stimulus": 15, "trial": 66, "rt": 956, "response": "Alpha"}, "67": {"stimulus": 12, "trial": 67, "rt": 806, "response": "Alpha"}, "68": {"stimulus": 36, "trial": 68, "rt": 1304, "response": "Alpha"}, "69": {"stimulus": 13, "trial": 69, "rt": 741, "response": "Alpha"}, "80": {"stimulus": 26, "trial": 80, "rt": 1000, "response": "Alpha"}, "52": {"stimulus": 22, "trial": 52, "rt": 890, "response": "Alpha"}, "53": {"stimulus": 34, "trial": 53, "rt": 900, "response": "Alpha"}, "24": {"stimulus": 65, "trial": 24, "rt": 1486, "response": "Beta"}, "25": {"stimulus": 76, "trial": 25, "rt": 1232, "response": "Beta"}, "26": {"stimulus": 67, "trial": 26, "rt": 1202, "response": "Beta"}, "27": {"stimulus": 16, "trial": 27, "rt": 1121, "response": "Alpha"}, "20": {"stimulus": 50, "trial": 20, "rt": 1251, "response": "Alpha"}, "21": {"stimulus": 61, "trial": 21, "rt": 1786, "response": "Beta"}, "22": {"stimulus": 58, "trial": 22, "rt": 1645, "response": "Beta"}, "23": {"stimulus": 17, "trial": 23, "rt": 1275, "response": "Alpha"}, "46": {"stimulus": 64, "trial": 46, "rt": 853, "response": "Beta"}, "47": {"stimulus": 66, "trial": 47, "rt": 731, "response": "Beta"}, "44": {"stimulus": 2, "trial": 44, "rt": 1130, "response": "Alpha"}, "45": {"stimulus": 79, "trial": 45, "rt": 1180, "response": "Beta"}, "28": {"stimulus": 3, "trial": 28, "rt": 1052, "response": "Alpha"}, "29": {"stimulus": 46, "trial": 29, "rt": 1411, "response": "Alpha"}, "40": {"stimulus": 11, "trial": 40, "rt": 1209, "response": "Alpha"}, "41": {"stimulus": 31, "trial": 41, "rt": 938, "response": "Alpha"}, "1": {"stimulus": 0, "trial": 1, "rt": 2105, "response": "Alpha"}, "0": {"stimulus": 23, "trial": 0, "rt": 2537, "response": "Alpha"}, "3": {"stimulus": 6, "trial": 3, "rt": 1623, "response": "Alpha"}, "2": {"stimulus": 10, "trial": 2, "rt": 2144, "response": "Alpha"}, "5": {"stimulus": 63, "trial": 5, "rt": 1350, "response": "Beta"}, "4": {"stimulus": 35, "trial": 4, "rt": 6586, "response": "Alpha"}, "7": {"stimulus": 18, "trial": 7, "rt": 1522, "response": "Alpha"}, "6": {"stimulus": 48, "trial": 6, "rt": 1343, "response": "Beta"}, "9": {"stimulus": 41, "trial": 9, "rt": 2287, "response": "Alpha"}, "8": {"stimulus": 44, "trial": 8, "rt": 1581, "response": "Alpha"}, "78": {"stimulus": 8, "trial": 78, "rt": 716, "response": "Alpha"}, "51": {"stimulus": 74, "trial": 51, "rt": 1030, "response": "Beta"}, "39": {"stimulus": 73, "trial": 39, "rt": 879, "response": "Beta"}, "65": {"stimulus": 7, "trial": 65, "rt": 1019, "response": "Alpha"}, "76": {"stimulus": 30, "trial": 76, "rt": 759, "response": "Alpha"}, "75": {"stimulus": 54, "trial": 75, "rt": 1828, "response": "Alpha"}, "38": {"stimulus": 80, "trial": 38, "rt": 909, "response": "Beta"}, "73": {"stimulus": 45, "trial": 73, "rt": 697, "response": "Alpha"}, "72": {"stimulus": 52, "trial": 72, "rt": 1113, "response": "Alpha"}, "71": {"stimulus": 78, "trial": 71, "rt": 1127, "response": "Beta"}, "70": {"stimulus": 28, "trial": 70, "rt": 950, "response": "Alpha"}, "59": {"stimulus": 56, "trial": 59, "rt": 1037, "response": "Beta"}, "79": {"stimulus": 69, "trial": 79, "rt": 1125, "response": "Beta"}, "58": {"stimulus": 40, "trial": 58, "rt": 1479, "response": "Alpha"}, "11": {"stimulus": 4, "trial": 11, "rt": 1532, "response": "Alpha"}, "10": {"stimulus": 20, "trial": 10, "rt": 1627, "response": "Alpha"}, "13": {"stimulus": 9, "trial": 13, "rt": 1455, "response": "Alpha"}, "12": {"stimulus": 33, "trial": 12, "rt": 1802, "response": "Alpha"}, "15": {"stimulus": 19, "trial": 15, "rt": 1767, "response": "Alpha"}, "14": {"stimulus": 24, "trial": 14, "rt": 1341, "response": "Alpha"}, "17": {"stimulus": 5, "trial": 17, "rt": 1401, "response": "Alpha"}, "16": {"stimulus": 75, "trial": 16, "rt": 1343, "response": "Beta"}, "19": {"stimulus": 49, "trial": 19, "rt": 1118, "response": "Alpha"}, "18": {"stimulus": 59, "trial": 18, "rt": 1352, "response": "Alpha"}, "31": {"stimulus": 25, "trial": 31, "rt": 1095, "response": "Alpha"}, "30": {"stimulus": 38, "trial": 30, "rt": 1047, "response": "Alpha"}, "37": {"stimulus": 71, "trial": 37, "rt": 1077, "response": "Beta"}, "36": {"stimulus": 32, "trial": 36, "rt": 1083, "response": "Alpha"}, "35": {"stimulus": 51, "trial": 35, "rt": 1423, "response": "Alpha"}, "34": {"stimulus": 37, "trial": 34, "rt": 1489, "response": "Alpha"}, "33": {"stimulus": 29, "trial": 33, "rt": 1402, "response": "Alpha"}, "55": {"stimulus": 1, "trial": 55, "rt": 2395, "response": "Alpha"}, "74": {"stimulus": 55, "trial": 74, "rt": 1287, "response": "Alpha"}, "32": {"stimulus": 57, "trial": 32, "rt": 1372, "response": "Beta"}, "57": {"stimulus": 42, "trial": 57, "rt": 1208, "response": "Alpha"}, "50": {"stimulus": 43, "trial": 50, "rt": 1000, "response": "Alpha"}}}