{"generation": {"1": {"stimulus": 72, "trial": 1, "rt": 9940}, "0": {"stimulus": 45, "trial": 0, "rt": 15851}, "3": {"stimulus": 54, "trial": 3, "rt": 3720}, "2": {"stimulus": 63, "trial": 2, "rt": 4416}}, "info": {"finish": 1488823013558, "participant": 181, "exposed": true, "lab": false, "start": 1488822788075, "counterbalance": 6, "condition": "Cluster", "browser": {"platform": "Win32", "userAgent": "Mozilla/5.0 (Windows NT 10.0; WOW64; rv:51.0) Gecko/20100101 Firefox/51.0"}}, "experiment": {"Paradigm": "TACL", "Stimuli": "Size-Color Squares", "Experiment": "Generating-Categories"}, "observation": {"11": {"stimulus": 34, "trial": 11, "rt": 1835}, "10": {"stimulus": 14, "trial": 10, "rt": 907}, "1": {"stimulus": 34, "trial": 1, "rt": 1950}, "0": {"stimulus": 14, "trial": 0, "rt": 3041}, "3": {"stimulus": 16, "trial": 3, "rt": 1197}, "2": {"stimulus": 32, "trial": 2, "rt": 1343}, "5": {"stimulus": 16, "trial": 5, "rt": 1723}, "4": {"stimulus": 32, "trial": 4, "rt": 1148}, "7": {"stimulus": 14, "trial": 7, "rt": 1863}, "6": {"stimulus": 34, "trial": 6, "rt": 996}, "9": {"stimulus": 16, "trial": 9, "rt": 1963}, "8": {"stimulus": 32, "trial": 8, "rt": 1703}}, "generalization": {"56": {"stimulus": 1, "trial": 56, "rt": 535, "response": "Beta"}, "77": {"stimulus": 43, "trial": 77, "rt": 772, "response": "Alpha"}, "54": {"stimulus": 76, "trial": 54, "rt": 1042, "response": "Alpha"}, "42": {"stimulus": 65, "trial": 42, "rt": 651, "response": "Beta"}, "48": {"stimulus": 56, "trial": 48, "rt": 1204, "response": "Beta"}, "43": {"stimulus": 48, "trial": 43, "rt": 2008, "response": "Beta"}, "60": {"stimulus": 66, "trial": 60, "rt": 1044, "response": "Beta"}, "61": {"stimulus": 26, "trial": 61, "rt": 710, "response": "Alpha"}, "62": {"stimulus": 53, "trial": 62, "rt": 723, "response": "Alpha"}, "63": {"stimulus": 61, "trial": 63, "rt": 788, "response": "Alpha"}, "64": {"stimulus": 46, "trial": 64, "rt": 1147, "response": "Beta"}, "49": {"stimulus": 38, "trial": 49, "rt": 1019, "response": "Beta"}, "66": {"stimulus": 47, "trial": 66, "rt": 792, "response": "Beta"}, "67": {"stimulus": 39, "trial": 67, "rt": 2236, "response": "Beta"}, "68": {"stimulus": 49, "trial": 68, "rt": 1247, "response": "Alpha"}, "69": {"stimulus": 21, "trial": 69, "rt": 1316, "response": "Alpha"}, "80": {"stimulus": 64, "trial": 80, "rt": 547, "response": "Beta"}, "52": {"stimulus": 27, "trial": 52, "rt": 707, "response": "Beta"}, "53": {"stimulus": 72, "trial": 53, "rt": 491, "response": "Beta"}, "24": {"stimulus": 58, "trial": 24, "rt": 559, "response": "Alpha"}, "25": {"stimulus": 51, "trial": 25, "rt": 884, "response": "Alpha"}, "26": {"stimulus": 14, "trial": 26, "rt": 911, "response": "Alpha"}, "27": {"stimulus": 40, "trial": 27, "rt": 667, "response": "Alpha"}, "20": {"stimulus": 69, "trial": 20, "rt": 643, "response": "Alpha"}, "21": {"stimulus": 59, "trial": 21, "rt": 913, "response": "Alpha"}, "22": {"stimulus": 37, "trial": 22, "rt": 924, "response": "Beta"}, "23": {"stimulus": 32, "trial": 23, "rt": 1259, "response": "Alpha"}, "46": {"stimulus": 77, "trial": 46, "rt": 1252, "response": "Alpha"}, "47": {"stimulus": 20, "trial": 47, "rt": 760, "response": "Beta"}, "44": {"stimulus": 30, "trial": 44, "rt": 1642, "response": "Beta"}, "45": {"stimulus": 5, "trial": 45, "rt": 2164, "response": "Alpha"}, "28": {"stimulus": 35, "trial": 28, "rt": 707, "response": "Alpha"}, "29": {"stimulus": 57, "trial": 29, "rt": 2539, "response": "Beta"}, "40": {"stimulus": 50, "trial": 40, "rt": 1147, "response": "Alpha"}, "41": {"stimulus": 7, "trial": 41, "rt": 681, "response": "Alpha"}, "1": {"stimulus": 36, "trial": 1, "rt": 916, "response": "Beta"}, "0": {"stimulus": 60, "trial": 0, "rt": 1450, "response": "Alpha"}, "3": {"stimulus": 19, "trial": 3, "rt": 1571, "response": "Beta"}, "2": {"stimulus": 13, "trial": 2, "rt": 1114, "response": "Alpha"}, "5": {"stimulus": 34, "trial": 5, "rt": 868, "response": "Alpha"}, "4": {"stimulus": 11, "trial": 4, "rt": 3468, "response": "Beta"}, "7": {"stimulus": 33, "trial": 7, "rt": 1084, "response": "Alpha"}, "6": {"stimulus": 8, "trial": 6, "rt": 1128, "response": "Alpha"}, "9": {"stimulus": 44, "trial": 9, "rt": 939, "response": "Alpha"}, "8": {"stimulus": 15, "trial": 8, "rt": 1324, "response": "Alpha"}, "78": {"stimulus": 55, "trial": 78, "rt": 828, "response": "Beta"}, "51": {"stimulus": 12, "trial": 51, "rt": 724, "response": "Beta"}, "39": {"stimulus": 17, "trial": 39, "rt": 619, "response": "Alpha"}, "65": {"stimulus": 22, "trial": 65, "rt": 1415, "response": "Alpha"}, "76": {"stimulus": 0, "trial": 76, "rt": 488, "response": "Beta"}, "75": {"stimulus": 10, "trial": 75, "rt": 807, "response": "Beta"}, "38": {"stimulus": 25, "trial": 38, "rt": 652, "response": "Alpha"}, "73": {"stimulus": 24, "trial": 73, "rt": 858, "response": "Alpha"}, "72": {"stimulus": 4, "trial": 72, "rt": 908, "response": "Alpha"}, "71": {"stimulus": 31, "trial": 71, "rt": 811, "response": "Alpha"}, "70": {"stimulus": 54, "trial": 70, "rt": 535, "response": "Beta"}, "59": {"stimulus": 73, "trial": 59, "rt": 683, "response": "Beta"}, "79": {"stimulus": 74, "trial": 79, "rt": 643, "response": "Beta"}, "58": {"stimulus": 75, "trial": 58, "rt": 1740, "response": "Beta"}, "11": {"stimulus": 23, "trial": 11, "rt": 674, "response": "Alpha"}, "10": {"stimulus": 29, "trial": 10, "rt": 798, "response": "Beta"}, "13": {"stimulus": 42, "trial": 13, "rt": 612, "response": "Alpha"}, "12": {"stimulus": 41, "trial": 12, "rt": 1972, "response": "Alpha"}, "15": {"stimulus": 68, "trial": 15, "rt": 1711, "response": "Alpha"}, "14": {"stimulus": 6, "trial": 14, "rt": 891, "response": "Alpha"}, "17": {"stimulus": 80, "trial": 17, "rt": 755, "response": "Alpha"}, "16": {"stimulus": 18, "trial": 16, "rt": 635, "response": "Beta"}, "19": {"stimulus": 45, "trial": 19, "rt": 778, "response": "Beta"}, "18": {"stimulus": 67, "trial": 18, "rt": 460, "response": "Alpha"}, "31": {"stimulus": 79, "trial": 31, "rt": 577, "response": "Alpha"}, "30": {"stimulus": 28, "trial": 30, "rt": 732, "response": "Beta"}, "37": {"stimulus": 70, "trial": 37, "rt": 612, "response": "Alpha"}, "36": {"stimulus": 62, "trial": 36, "rt": 776, "response": "Alpha"}, "35": {"stimulus": 2, "trial": 35, "rt": 1078, "response": "Beta"}, "34": {"stimulus": 78, "trial": 34, "rt": 1868, "response": "Alpha"}, "33": {"stimulus": 52, "trial": 33, "rt": 531, "response": "Alpha"}, "55": {"stimulus": 16, "trial": 55, "rt": 907, "response": "Alpha"}, "74": {"stimulus": 63, "trial": 74, "rt": 1012, "response": "Beta"}, "32": {"stimulus": 9, "trial": 32, "rt": 675, "response": "Beta"}, "57": {"stimulus": 71, "trial": 57, "rt": 723, "response": "Alpha"}, "50": {"stimulus": 3, "trial": 50, "rt": 911, "response": "Beta"}}}