{"generation": {"1": {"stimulus": 76, "trial": 1, "rt": 15997}, "0": {"stimulus": 80, "trial": 0, "rt": 24050}, "3": {"stimulus": 77, "trial": 3, "rt": 12240}, "2": {"stimulus": 72, "trial": 2, "rt": 6613}}, "info": {"finish": 1488823153633, "participant": 183, "exposed": true, "lab": false, "start": 1488822813367, "counterbalance": 2, "condition": "Row", "browser": {"platform": "Win32", "userAgent": "Mozilla/5.0 (Windows NT 10.0; WOW64; rv:51.0) Gecko/20100101 Firefox/51.0"}}, "experiment": {"Paradigm": "TACL", "Stimuli": "Size-Color Squares", "Experiment": "Generating-Categories"}, "observation": {"11": {"stimulus": 14, "trial": 11, "rt": 1666}, "10": {"stimulus": 16, "trial": 10, "rt": 2291}, "1": {"stimulus": 10, "trial": 1, "rt": 5765}, "0": {"stimulus": 12, "trial": 0, "rt": 8060}, "3": {"stimulus": 14, "trial": 3, "rt": 2061}, "2": {"stimulus": 16, "trial": 2, "rt": 3025}, "5": {"stimulus": 16, "trial": 5, "rt": 1895}, "4": {"stimulus": 12, "trial": 4, "rt": 2248}, "7": {"stimulus": 14, "trial": 7, "rt": 3677}, "6": {"stimulus": 10, "trial": 6, "rt": 2350}, "9": {"stimulus": 10, "trial": 9, "rt": 2634}, "8": {"stimulus": 12, "trial": 8, "rt": 2530}}, "generalization": {"56": {"stimulus": 32, "trial": 56, "rt": 935, "response": "Beta"}, "77": {"stimulus": 3, "trial": 77, "rt": 1324, "response": "Alpha"}, "54": {"stimulus": 50, "trial": 54, "rt": 834, "response": "Beta"}, "42": {"stimulus": 30, "trial": 42, "rt": 904, "response": "Beta"}, "48": {"stimulus": 58, "trial": 48, "rt": 1056, "response": "Beta"}, "43": {"stimulus": 10, "trial": 43, "rt": 1479, "response": "Alpha"}, "60": {"stimulus": 29, "trial": 60, "rt": 1095, "response": "Beta"}, "61": {"stimulus": 40, "trial": 61, "rt": 3243, "response": "Beta"}, "62": {"stimulus": 23, "trial": 62, "rt": 1464, "response": "Beta"}, "63": {"stimulus": 57, "trial": 63, "rt": 824, "response": "Beta"}, "64": {"stimulus": 17, "trial": 64, "rt": 1893, "response": "Alpha"}, "49": {"stimulus": 11, "trial": 49, "rt": 1345, "response": "Alpha"}, "66": {"stimulus": 18, "trial": 66, "rt": 3006, "response": "Beta"}, "67": {"stimulus": 39, "trial": 67, "rt": 902, "response": "Beta"}, "68": {"stimulus": 42, "trial": 68, "rt": 766, "response": "Beta"}, "69": {"stimulus": 24, "trial": 69, "rt": 3083, "response": "Beta"}, "80": {"stimulus": 52, "trial": 80, "rt": 1592, "response": "Beta"}, "52": {"stimulus": 16, "trial": 52, "rt": 1131, "response": "Alpha"}, "53": {"stimulus": 61, "trial": 53, "rt": 1556, "response": "Beta"}, "24": {"stimulus": 60, "trial": 24, "rt": 830, "response": "Beta"}, "25": {"stimulus": 71, "trial": 25, "rt": 825, "response": "Beta"}, "26": {"stimulus": 48, "trial": 26, "rt": 1155, "response": "Beta"}, "27": {"stimulus": 55, "trial": 27, "rt": 807, "response": "Beta"}, "20": {"stimulus": 49, "trial": 20, "rt": 1190, "response": "Beta"}, "21": {"stimulus": 25, "trial": 21, "rt": 1515, "response": "Alpha"}, "22": {"stimulus": 1, "trial": 22, "rt": 1404, "response": "Alpha"}, "23": {"stimulus": 41, "trial": 23, "rt": 1471, "response": "Beta"}, "46": {"stimulus": 62, "trial": 46, "rt": 803, "response": "Beta"}, "47": {"stimulus": 14, "trial": 47, "rt": 1582, "response": "Alpha"}, "44": {"stimulus": 59, "trial": 44, "rt": 1504, "response": "Beta"}, "45": {"stimulus": 34, "trial": 45, "rt": 934, "response": "Beta"}, "28": {"stimulus": 47, "trial": 28, "rt": 876, "response": "Beta"}, "29": {"stimulus": 46, "trial": 29, "rt": 915, "response": "Beta"}, "40": {"stimulus": 37, "trial": 40, "rt": 829, "response": "Beta"}, "41": {"stimulus": 67, "trial": 41, "rt": 792, "response": "Beta"}, "1": {"stimulus": 2, "trial": 1, "rt": 1917, "response": "Alpha"}, "0": {"stimulus": 76, "trial": 0, "rt": 3675, "response": "Beta"}, "3": {"stimulus": 51, "trial": 3, "rt": 1433, "response": "Beta"}, "2": {"stimulus": 5, "trial": 2, "rt": 1251, "response": "Alpha"}, "5": {"stimulus": 44, "trial": 5, "rt": 1063, "response": "Beta"}, "4": {"stimulus": 36, "trial": 4, "rt": 1541, "response": "Beta"}, "7": {"stimulus": 35, "trial": 7, "rt": 2028, "response": "Beta"}, "6": {"stimulus": 53, "trial": 6, "rt": 986, "response": "Beta"}, "9": {"stimulus": 19, "trial": 9, "rt": 1507, "response": "Alpha"}, "8": {"stimulus": 69, "trial": 8, "rt": 2139, "response": "Beta"}, "78": {"stimulus": 15, "trial": 78, "rt": 759, "response": "Alpha"}, "51": {"stimulus": 4, "trial": 51, "rt": 1734, "response": "Alpha"}, "39": {"stimulus": 21, "trial": 39, "rt": 1450, "response": "Beta"}, "65": {"stimulus": 64, "trial": 65, "rt": 2017, "response": "Beta"}, "76": {"stimulus": 12, "trial": 76, "rt": 1528, "response": "Alpha"}, "75": {"stimulus": 38, "trial": 75, "rt": 2755, "response": "Beta"}, "38": {"stimulus": 65, "trial": 38, "rt": 1244, "response": "Beta"}, "73": {"stimulus": 22, "trial": 73, "rt": 1439, "response": "Alpha"}, "72": {"stimulus": 75, "trial": 72, "rt": 1489, "response": "Beta"}, "71": {"stimulus": 0, "trial": 71, "rt": 1002, "response": "Alpha"}, "70": {"stimulus": 26, "trial": 70, "rt": 2306, "response": "Alpha"}, "59": {"stimulus": 72, "trial": 59, "rt": 1825, "response": "Beta"}, "79": {"stimulus": 9, "trial": 79, "rt": 780, "response": "Alpha"}, "58": {"stimulus": 33, "trial": 58, "rt": 921, "response": "Beta"}, "11": {"stimulus": 78, "trial": 11, "rt": 1205, "response": "Beta"}, "10": {"stimulus": 80, "trial": 10, "rt": 1772, "response": "Beta"}, "13": {"stimulus": 73, "trial": 13, "rt": 1155, "response": "Beta"}, "12": {"stimulus": 63, "trial": 12, "rt": 1129, "response": "Beta"}, "15": {"stimulus": 66, "trial": 15, "rt": 1057, "response": "Beta"}, "14": {"stimulus": 8, "trial": 14, "rt": 1606, "response": "Alpha"}, "17": {"stimulus": 28, "trial": 17, "rt": 1987, "response": "Beta"}, "16": {"stimulus": 45, "trial": 16, "rt": 1102, "response": "Beta"}, "19": {"stimulus": 7, "trial": 19, "rt": 1435, "response": "Alpha"}, "18": {"stimulus": 77, "trial": 18, "rt": 935, "response": "Beta"}, "31": {"stimulus": 54, "trial": 31, "rt": 1035, "response": "Beta"}, "30": {"stimulus": 79, "trial": 30, "rt": 800, "response": "Beta"}, "37": {"stimulus": 13, "trial": 37, "rt": 1527, "response": "Alpha"}, "36": {"stimulus": 68, "trial": 36, "rt": 793, "response": "Beta"}, "35": {"stimulus": 56, "trial": 35, "rt": 868, "response": "Beta"}, "34": {"stimulus": 31, "trial": 34, "rt": 1433, "response": "Beta"}, "33": {"stimulus": 20, "trial": 33, "rt": 1753, "response": "Alpha"}, "55": {"stimulus": 43, "trial": 55, "rt": 843, "response": "Beta"}, "74": {"stimulus": 70, "trial": 74, "rt": 1414, "response": "Beta"}, "32": {"stimulus": 6, "trial": 32, "rt": 1641, "response": "Alpha"}, "57": {"stimulus": 27, "trial": 57, "rt": 983, "response": "Beta"}, "50": {"stimulus": 74, "trial": 50, "rt": 2776, "response": "Beta"}}}