{"generation": {"1": {"stimulus": 80, "trial": 1, "rt": 7404}, "0": {"stimulus": 77, "trial": 0, "rt": 11668}, "3": {"stimulus": 63, "trial": 3, "rt": 9524}, "2": {"stimulus": 66, "trial": 2, "rt": 5876}}, "info": {"finish": 1488823005082, "participant": 184, "exposed": true, "lab": false, "start": 1488822795173, "counterbalance": 3, "condition": "Cluster", "browser": {"platform": "MacIntel", "userAgent": "Mozilla/5.0 (Macintosh; Intel Mac OS X 10.12; rv:51.0) Gecko/20100101 Firefox/51.0"}}, "experiment": {"Paradigm": "TACL", "Stimuli": "Size-Color Squares", "Experiment": "Generating-Categories"}, "observation": {"11": {"stimulus": 16, "trial": 11, "rt": 1309}, "10": {"stimulus": 32, "trial": 10, "rt": 1700}, "1": {"stimulus": 34, "trial": 1, "rt": 2436}, "0": {"stimulus": 32, "trial": 0, "rt": 3021}, "3": {"stimulus": 14, "trial": 3, "rt": 2083}, "2": {"stimulus": 16, "trial": 2, "rt": 2096}, "5": {"stimulus": 14, "trial": 5, "rt": 1827}, "4": {"stimulus": 34, "trial": 4, "rt": 2083}, "7": {"stimulus": 16, "trial": 7, "rt": 1567}, "6": {"stimulus": 32, "trial": 6, "rt": 1659}, "9": {"stimulus": 14, "trial": 9, "rt": 1545}, "8": {"stimulus": 34, "trial": 8, "rt": 1547}}, "generalization": {"56": {"stimulus": 61, "trial": 56, "rt": 523, "response": "Beta"}, "77": {"stimulus": 37, "trial": 77, "rt": 1995, "response": "Alpha"}, "54": {"stimulus": 36, "trial": 54, "rt": 1556, "response": "Alpha"}, "42": {"stimulus": 65, "trial": 42, "rt": 602, "response": "Beta"}, "48": {"stimulus": 56, "trial": 48, "rt": 620, "response": "Beta"}, "43": {"stimulus": 4, "trial": 43, "rt": 917, "response": "Alpha"}, "60": {"stimulus": 12, "trial": 60, "rt": 812, "response": "Alpha"}, "61": {"stimulus": 30, "trial": 61, "rt": 1328, "response": "Alpha"}, "62": {"stimulus": 53, "trial": 62, "rt": 962, "response": "Beta"}, "63": {"stimulus": 11, "trial": 63, "rt": 712, "response": "Alpha"}, "64": {"stimulus": 28, "trial": 64, "rt": 555, "response": "Alpha"}, "49": {"stimulus": 68, "trial": 49, "rt": 625, "response": "Beta"}, "66": {"stimulus": 3, "trial": 66, "rt": 860, "response": "Alpha"}, "67": {"stimulus": 75, "trial": 67, "rt": 533, "response": "Beta"}, "68": {"stimulus": 42, "trial": 68, "rt": 2949, "response": "Beta"}, "69": {"stimulus": 76, "trial": 69, "rt": 791, "response": "Beta"}, "80": {"stimulus": 49, "trial": 80, "rt": 948, "response": "Beta"}, "52": {"stimulus": 58, "trial": 52, "rt": 2838, "response": "Beta"}, "53": {"stimulus": 52, "trial": 53, "rt": 2319, "response": "Beta"}, "24": {"stimulus": 8, "trial": 24, "rt": 780, "response": "Alpha"}, "25": {"stimulus": 21, "trial": 25, "rt": 971, "response": "Alpha"}, "26": {"stimulus": 46, "trial": 26, "rt": 1103, "response": "Beta"}, "27": {"stimulus": 72, "trial": 27, "rt": 680, "response": "Beta"}, "20": {"stimulus": 19, "trial": 20, "rt": 1441, "response": "Alpha"}, "21": {"stimulus": 5, "trial": 21, "rt": 914, "response": "Alpha"}, "22": {"stimulus": 15, "trial": 22, "rt": 590, "response": "Alpha"}, "23": {"stimulus": 16, "trial": 23, "rt": 657, "response": "Alpha"}, "46": {"stimulus": 54, "trial": 46, "rt": 732, "response": "Beta"}, "47": {"stimulus": 64, "trial": 47, "rt": 599, "response": "Beta"}, "44": {"stimulus": 17, "trial": 44, "rt": 1276, "response": "Alpha"}, "45": {"stimulus": 67, "trial": 45, "rt": 748, "response": "Beta"}, "28": {"stimulus": 23, "trial": 28, "rt": 892, "response": "Alpha"}, "29": {"stimulus": 47, "trial": 29, "rt": 890, "response": "Beta"}, "40": {"stimulus": 9, "trial": 40, "rt": 1457, "response": "Alpha"}, "41": {"stimulus": 43, "trial": 41, "rt": 1216, "response": "Alpha"}, "1": {"stimulus": 74, "trial": 1, "rt": 1735, "response": "Beta"}, "0": {"stimulus": 78, "trial": 0, "rt": 1353, "response": "Beta"}, "3": {"stimulus": 6, "trial": 3, "rt": 960, "response": "Alpha"}, "2": {"stimulus": 10, "trial": 2, "rt": 844, "response": "Alpha"}, "5": {"stimulus": 14, "trial": 5, "rt": 1655, "response": "Alpha"}, "4": {"stimulus": 35, "trial": 4, "rt": 893, "response": "Alpha"}, "7": {"stimulus": 31, "trial": 7, "rt": 984, "response": "Alpha"}, "6": {"stimulus": 40, "trial": 6, "rt": 3817, "response": "Alpha"}, "9": {"stimulus": 59, "trial": 9, "rt": 879, "response": "Beta"}, "8": {"stimulus": 34, "trial": 8, "rt": 665, "response": "Alpha"}, "78": {"stimulus": 41, "trial": 78, "rt": 946, "response": "Alpha"}, "51": {"stimulus": 39, "trial": 51, "rt": 815, "response": "Alpha"}, "39": {"stimulus": 7, "trial": 39, "rt": 827, "response": "Alpha"}, "65": {"stimulus": 60, "trial": 65, "rt": 868, "response": "Beta"}, "76": {"stimulus": 55, "trial": 76, "rt": 744, "response": "Beta"}, "75": {"stimulus": 51, "trial": 75, "rt": 566, "response": "Alpha"}, "38": {"stimulus": 2, "trial": 38, "rt": 883, "response": "Alpha"}, "73": {"stimulus": 44, "trial": 73, "rt": 1238, "response": "Alpha"}, "72": {"stimulus": 13, "trial": 72, "rt": 680, "response": "Alpha"}, "71": {"stimulus": 22, "trial": 71, "rt": 732, "response": "Alpha"}, "70": {"stimulus": 48, "trial": 70, "rt": 625, "response": "Beta"}, "59": {"stimulus": 77, "trial": 59, "rt": 703, "response": "Beta"}, "79": {"stimulus": 33, "trial": 79, "rt": 565, "response": "Alpha"}, "58": {"stimulus": 18, "trial": 58, "rt": 782, "response": "Alpha"}, "11": {"stimulus": 71, "trial": 11, "rt": 814, "response": "Beta"}, "10": {"stimulus": 1, "trial": 10, "rt": 812, "response": "Alpha"}, "13": {"stimulus": 73, "trial": 13, "rt": 709, "response": "Beta"}, "12": {"stimulus": 27, "trial": 12, "rt": 2680, "response": "Beta"}, "15": {"stimulus": 26, "trial": 15, "rt": 1016, "response": "Alpha"}, "14": {"stimulus": 20, "trial": 14, "rt": 1240, "response": "Alpha"}, "17": {"stimulus": 0, "trial": 17, "rt": 963, "response": "Alpha"}, "16": {"stimulus": 69, "trial": 16, "rt": 715, "response": "Beta"}, "19": {"stimulus": 79, "trial": 19, "rt": 710, "response": "Beta"}, "18": {"stimulus": 24, "trial": 18, "rt": 1229, "response": "Alpha"}, "31": {"stimulus": 80, "trial": 31, "rt": 1174, "response": "Beta"}, "30": {"stimulus": 38, "trial": 30, "rt": 543, "response": "Beta"}, "37": {"stimulus": 70, "trial": 37, "rt": 542, "response": "Beta"}, "36": {"stimulus": 50, "trial": 36, "rt": 714, "response": "Beta"}, "35": {"stimulus": 66, "trial": 35, "rt": 590, "response": "Beta"}, "34": {"stimulus": 25, "trial": 34, "rt": 1232, "response": "Alpha"}, "33": {"stimulus": 57, "trial": 33, "rt": 1725, "response": "Beta"}, "55": {"stimulus": 62, "trial": 55, "rt": 1115, "response": "Beta"}, "74": {"stimulus": 32, "trial": 74, "rt": 598, "response": "Alpha"}, "32": {"stimulus": 63, "trial": 32, "rt": 632, "response": "Beta"}, "57": {"stimulus": 45, "trial": 57, "rt": 1084, "response": "Beta"}, "50": {"stimulus": 29, "trial": 50, "rt": 949, "response": "Alpha"}}}