{"generation": {"1": {"stimulus": 76, "trial": 1, "rt": 3951}, "0": {"stimulus": 72, "trial": 0, "rt": 21743}, "3": {"stimulus": 68, "trial": 3, "rt": 5730}, "2": {"stimulus": 62, "trial": 2, "rt": 6146}}, "info": {"finish": 1488823127967, "participant": 185, "exposed": true, "lab": false, "start": 1488822818008, "counterbalance": 4, "condition": "Row", "browser": {"platform": "MacIntel", "userAgent": "Mozilla/5.0 (Macintosh; Intel Mac OS X 10_11_6) AppleWebKit/602.2.14 (KHTML, like Gecko) Version/10.0.1 Safari/602.2.14"}}, "experiment": {"Paradigm": "TACL", "Stimuli": "Size-Color Squares", "Experiment": "Generating-Categories"}, "observation": {"11": {"stimulus": 10, "trial": 11, "rt": 3566}, "10": {"stimulus": 16, "trial": 10, "rt": 2088}, "1": {"stimulus": 12, "trial": 1, "rt": 2465}, "0": {"stimulus": 16, "trial": 0, "rt": 2961}, "3": {"stimulus": 14, "trial": 3, "rt": 3071}, "2": {"stimulus": 10, "trial": 2, "rt": 4124}, "5": {"stimulus": 14, "trial": 5, "rt": 1269}, "4": {"stimulus": 10, "trial": 4, "rt": 1569}, "7": {"stimulus": 12, "trial": 7, "rt": 2639}, "6": {"stimulus": 16, "trial": 6, "rt": 2056}, "9": {"stimulus": 12, "trial": 9, "rt": 1581}, "8": {"stimulus": 14, "trial": 8, "rt": 1413}}, "generalization": {"56": {"stimulus": 40, "trial": 56, "rt": 1275, "response": "Alpha"}, "77": {"stimulus": 29, "trial": 77, "rt": 943, "response": "Alpha"}, "54": {"stimulus": 14, "trial": 54, "rt": 980, "response": "Alpha"}, "42": {"stimulus": 49, "trial": 42, "rt": 741, "response": "Beta"}, "48": {"stimulus": 54, "trial": 48, "rt": 380, "response": "Beta"}, "43": {"stimulus": 57, "trial": 43, "rt": 549, "response": "Beta"}, "60": {"stimulus": 48, "trial": 60, "rt": 864, "response": "Beta"}, "61": {"stimulus": 35, "trial": 61, "rt": 2161, "response": "Beta"}, "62": {"stimulus": 32, "trial": 62, "rt": 490, "response": "Beta"}, "63": {"stimulus": 16, "trial": 63, "rt": 889, "response": "Alpha"}, "64": {"stimulus": 24, "trial": 64, "rt": 707, "response": "Beta"}, "49": {"stimulus": 63, "trial": 49, "rt": 382, "response": "Beta"}, "66": {"stimulus": 15, "trial": 66, "rt": 798, "response": "Alpha"}, "67": {"stimulus": 39, "trial": 67, "rt": 718, "response": "Beta"}, "68": {"stimulus": 61, "trial": 68, "rt": 469, "response": "Beta"}, "69": {"stimulus": 72, "trial": 69, "rt": 473, "response": "Beta"}, "80": {"stimulus": 77, "trial": 80, "rt": 792, "response": "Beta"}, "52": {"stimulus": 30, "trial": 52, "rt": 446, "response": "Alpha"}, "53": {"stimulus": 68, "trial": 53, "rt": 1150, "response": "Beta"}, "24": {"stimulus": 23, "trial": 24, "rt": 966, "response": "Beta"}, "25": {"stimulus": 43, "trial": 25, "rt": 589, "response": "Beta"}, "26": {"stimulus": 47, "trial": 26, "rt": 539, "response": "Beta"}, "27": {"stimulus": 76, "trial": 27, "rt": 1788, "response": "Beta"}, "20": {"stimulus": 56, "trial": 20, "rt": 942, "response": "Beta"}, "21": {"stimulus": 22, "trial": 21, "rt": 12049, "response": "Beta"}, "22": {"stimulus": 7, "trial": 22, "rt": 764, "response": "Alpha"}, "23": {"stimulus": 53, "trial": 23, "rt": 844, "response": "Beta"}, "46": {"stimulus": 37, "trial": 46, "rt": 1902, "response": "Beta"}, "47": {"stimulus": 50, "trial": 47, "rt": 597, "response": "Beta"}, "44": {"stimulus": 55, "trial": 44, "rt": 665, "response": "Beta"}, "45": {"stimulus": 26, "trial": 45, "rt": 1236, "response": "Alpha"}, "28": {"stimulus": 71, "trial": 28, "rt": 1272, "response": "Beta"}, "29": {"stimulus": 13, "trial": 29, "rt": 1014, "response": "Alpha"}, "40": {"stimulus": 2, "trial": 40, "rt": 948, "response": "Alpha"}, "41": {"stimulus": 74, "trial": 41, "rt": 787, "response": "Beta"}, "1": {"stimulus": 27, "trial": 1, "rt": 1245, "response": "Alpha"}, "0": {"stimulus": 1, "trial": 0, "rt": 2060, "response": "Alpha"}, "3": {"stimulus": 60, "trial": 3, "rt": 1632, "response": "Beta"}, "2": {"stimulus": 31, "trial": 2, "rt": 1395, "response": "Alpha"}, "5": {"stimulus": 65, "trial": 5, "rt": 1430, "response": "Beta"}, "4": {"stimulus": 28, "trial": 4, "rt": 2292, "response": "Beta"}, "7": {"stimulus": 12, "trial": 7, "rt": 1214, "response": "Alpha"}, "6": {"stimulus": 38, "trial": 6, "rt": 1281, "response": "Beta"}, "9": {"stimulus": 70, "trial": 9, "rt": 620, "response": "Beta"}, "8": {"stimulus": 66, "trial": 8, "rt": 979, "response": "Beta"}, "78": {"stimulus": 20, "trial": 78, "rt": 3357, "response": "Alpha"}, "51": {"stimulus": 19, "trial": 51, "rt": 419, "response": "Alpha"}, "39": {"stimulus": 78, "trial": 39, "rt": 951, "response": "Beta"}, "65": {"stimulus": 41, "trial": 65, "rt": 568, "response": "Beta"}, "76": {"stimulus": 36, "trial": 76, "rt": 708, "response": "Beta"}, "75": {"stimulus": 79, "trial": 75, "rt": 595, "response": "Beta"}, "38": {"stimulus": 17, "trial": 38, "rt": 639, "response": "Alpha"}, "73": {"stimulus": 3, "trial": 73, "rt": 509, "response": "Alpha"}, "72": {"stimulus": 25, "trial": 72, "rt": 801, "response": "Alpha"}, "71": {"stimulus": 52, "trial": 71, "rt": 1094, "response": "Beta"}, "70": {"stimulus": 4, "trial": 70, "rt": 828, "response": "Alpha"}, "59": {"stimulus": 46, "trial": 59, "rt": 1104, "response": "Beta"}, "79": {"stimulus": 18, "trial": 79, "rt": 541, "response": "Alpha"}, "58": {"stimulus": 10, "trial": 58, "rt": 7005, "response": "Alpha"}, "11": {"stimulus": 21, "trial": 11, "rt": 1090, "response": "Alpha"}, "10": {"stimulus": 80, "trial": 10, "rt": 919, "response": "Beta"}, "13": {"stimulus": 8, "trial": 13, "rt": 905, "response": "Alpha"}, "12": {"stimulus": 62, "trial": 12, "rt": 1832, "response": "Beta"}, "15": {"stimulus": 45, "trial": 15, "rt": 743, "response": "Beta"}, "14": {"stimulus": 75, "trial": 14, "rt": 724, "response": "Beta"}, "17": {"stimulus": 51, "trial": 17, "rt": 546, "response": "Beta"}, "16": {"stimulus": 34, "trial": 16, "rt": 844, "response": "Beta"}, "19": {"stimulus": 11, "trial": 19, "rt": 920, "response": "Alpha"}, "18": {"stimulus": 33, "trial": 18, "rt": 1737, "response": "Beta"}, "31": {"stimulus": 69, "trial": 31, "rt": 903, "response": "Beta"}, "30": {"stimulus": 42, "trial": 30, "rt": 2714, "response": "Beta"}, "37": {"stimulus": 9, "trial": 37, "rt": 781, "response": "Alpha"}, "36": {"stimulus": 44, "trial": 36, "rt": 2646, "response": "Alpha"}, "35": {"stimulus": 5, "trial": 35, "rt": 454, "response": "Alpha"}, "34": {"stimulus": 6, "trial": 34, "rt": 853, "response": "Alpha"}, "33": {"stimulus": 58, "trial": 33, "rt": 436, "response": "Beta"}, "55": {"stimulus": 59, "trial": 55, "rt": 1903, "response": "Beta"}, "74": {"stimulus": 73, "trial": 74, "rt": 717, "response": "Beta"}, "32": {"stimulus": 67, "trial": 32, "rt": 433, "response": "Beta"}, "57": {"stimulus": 64, "trial": 57, "rt": 855, "response": "Beta"}, "50": {"stimulus": 0, "trial": 50, "rt": 794, "response": "Alpha"}}}