{"generation": {"1": {"stimulus": 80, "trial": 1, "rt": 11505}, "0": {"stimulus": 78, "trial": 0, "rt": 19410}, "3": {"stimulus": 74, "trial": 3, "rt": 10699}, "2": {"stimulus": 76, "trial": 2, "rt": 6742}}, "info": {"finish": 1488823155269, "participant": 186, "exposed": true, "lab": false, "start": 1488822821347, "counterbalance": 2, "condition": "Row", "browser": {"platform": "Win32", "userAgent": "Mozilla/5.0 (Windows NT 6.2; Win64; x64) AppleWebKit/537.36 (KHTML, like Gecko) Chrome/56.0.2924.87 Safari/537.36"}}, "experiment": {"Paradigm": "TACL", "Stimuli": "Size-Color Squares", "Experiment": "Generating-Categories"}, "observation": {"11": {"stimulus": 16, "trial": 11, "rt": 1104}, "10": {"stimulus": 10, "trial": 10, "rt": 1213}, "1": {"stimulus": 16, "trial": 1, "rt": 1702}, "0": {"stimulus": 10, "trial": 0, "rt": 6523}, "3": {"stimulus": 14, "trial": 3, "rt": 1292}, "2": {"stimulus": 12, "trial": 2, "rt": 1286}, "5": {"stimulus": 14, "trial": 5, "rt": 1422}, "4": {"stimulus": 12, "trial": 4, "rt": 1424}, "7": {"stimulus": 10, "trial": 7, "rt": 1204}, "6": {"stimulus": 16, "trial": 6, "rt": 1233}, "9": {"stimulus": 12, "trial": 9, "rt": 1151}, "8": {"stimulus": 14, "trial": 8, "rt": 1120}}, "generalization": {"56": {"stimulus": 40, "trial": 56, "rt": 2746, "response": "Alpha"}, "77": {"stimulus": 19, "trial": 77, "rt": 1575, "response": "Alpha"}, "54": {"stimulus": 78, "trial": 54, "rt": 1441, "response": "Beta"}, "42": {"stimulus": 49, "trial": 42, "rt": 2066, "response": "Beta"}, "48": {"stimulus": 68, "trial": 48, "rt": 1136, "response": "Beta"}, "43": {"stimulus": 11, "trial": 43, "rt": 1387, "response": "Alpha"}, "60": {"stimulus": 31, "trial": 60, "rt": 2529, "response": "Alpha"}, "61": {"stimulus": 70, "trial": 61, "rt": 1249, "response": "Beta"}, "62": {"stimulus": 34, "trial": 62, "rt": 1917, "response": "Alpha"}, "63": {"stimulus": 24, "trial": 63, "rt": 889, "response": "Alpha"}, "64": {"stimulus": 75, "trial": 64, "rt": 1718, "response": "Beta"}, "49": {"stimulus": 8, "trial": 49, "rt": 1423, "response": "Alpha"}, "66": {"stimulus": 2, "trial": 66, "rt": 1095, "response": "Alpha"}, "67": {"stimulus": 79, "trial": 67, "rt": 1718, "response": "Beta"}, "68": {"stimulus": 52, "trial": 68, "rt": 1765, "response": "Beta"}, "69": {"stimulus": 12, "trial": 69, "rt": 1136, "response": "Alpha"}, "80": {"stimulus": 37, "trial": 80, "rt": 838, "response": "Beta"}, "52": {"stimulus": 32, "trial": 52, "rt": 2315, "response": "Alpha"}, "53": {"stimulus": 13, "trial": 53, "rt": 870, "response": "Alpha"}, "24": {"stimulus": 76, "trial": 24, "rt": 1238, "response": "Beta"}, "25": {"stimulus": 58, "trial": 25, "rt": 871, "response": "Beta"}, "26": {"stimulus": 35, "trial": 26, "rt": 1766, "response": "Alpha"}, "27": {"stimulus": 53, "trial": 27, "rt": 5203, "response": "Beta"}, "20": {"stimulus": 51, "trial": 20, "rt": 1969, "response": "Beta"}, "21": {"stimulus": 25, "trial": 21, "rt": 1267, "response": "Alpha"}, "22": {"stimulus": 26, "trial": 22, "rt": 1092, "response": "Alpha"}, "23": {"stimulus": 6, "trial": 23, "rt": 736, "response": "Alpha"}, "46": {"stimulus": 22, "trial": 46, "rt": 1125, "response": "Alpha"}, "47": {"stimulus": 36, "trial": 47, "rt": 4675, "response": "Alpha"}, "44": {"stimulus": 61, "trial": 44, "rt": 1901, "response": "Beta"}, "45": {"stimulus": 43, "trial": 45, "rt": 3320, "response": "Alpha"}, "28": {"stimulus": 62, "trial": 28, "rt": 836, "response": "Beta"}, "29": {"stimulus": 77, "trial": 29, "rt": 889, "response": "Beta"}, "40": {"stimulus": 4, "trial": 40, "rt": 1206, "response": "Alpha"}, "41": {"stimulus": 67, "trial": 41, "rt": 1204, "response": "Beta"}, "1": {"stimulus": 10, "trial": 1, "rt": 1453, "response": "Alpha"}, "0": {"stimulus": 54, "trial": 0, "rt": 3373, "response": "Beta"}, "3": {"stimulus": 20, "trial": 3, "rt": 1122, "response": "Alpha"}, "2": {"stimulus": 46, "trial": 2, "rt": 1655, "response": "Beta"}, "5": {"stimulus": 66, "trial": 5, "rt": 1369, "response": "Beta"}, "4": {"stimulus": 30, "trial": 4, "rt": 1835, "response": "Alpha"}, "7": {"stimulus": 16, "trial": 7, "rt": 1286, "response": "Alpha"}, "6": {"stimulus": 72, "trial": 6, "rt": 1038, "response": "Beta"}, "9": {"stimulus": 27, "trial": 9, "rt": 739, "response": "Alpha"}, "8": {"stimulus": 29, "trial": 8, "rt": 1177, "response": "Alpha"}, "78": {"stimulus": 14, "trial": 78, "rt": 765, "response": "Alpha"}, "51": {"stimulus": 23, "trial": 51, "rt": 723, "response": "Alpha"}, "39": {"stimulus": 55, "trial": 39, "rt": 1258, "response": "Beta"}, "65": {"stimulus": 56, "trial": 65, "rt": 1681, "response": "Beta"}, "76": {"stimulus": 69, "trial": 76, "rt": 951, "response": "Beta"}, "75": {"stimulus": 71, "trial": 75, "rt": 1269, "response": "Beta"}, "38": {"stimulus": 9, "trial": 38, "rt": 1384, "response": "Alpha"}, "73": {"stimulus": 5, "trial": 73, "rt": 1260, "response": "Alpha"}, "72": {"stimulus": 60, "trial": 72, "rt": 761, "response": "Beta"}, "71": {"stimulus": 80, "trial": 71, "rt": 906, "response": "Beta"}, "70": {"stimulus": 50, "trial": 70, "rt": 2058, "response": "Beta"}, "59": {"stimulus": 48, "trial": 59, "rt": 2618, "response": "Beta"}, "79": {"stimulus": 44, "trial": 79, "rt": 2095, "response": "Beta"}, "58": {"stimulus": 15, "trial": 58, "rt": 696, "response": "Alpha"}, "11": {"stimulus": 39, "trial": 11, "rt": 2662, "response": "Alpha"}, "10": {"stimulus": 17, "trial": 10, "rt": 771, "response": "Alpha"}, "13": {"stimulus": 57, "trial": 13, "rt": 1666, "response": "Beta"}, "12": {"stimulus": 21, "trial": 12, "rt": 1282, "response": "Alpha"}, "15": {"stimulus": 33, "trial": 15, "rt": 1275, "response": "Alpha"}, "14": {"stimulus": 64, "trial": 14, "rt": 716, "response": "Beta"}, "17": {"stimulus": 47, "trial": 17, "rt": 4545, "response": "Beta"}, "16": {"stimulus": 28, "trial": 16, "rt": 828, "response": "Alpha"}, "19": {"stimulus": 0, "trial": 19, "rt": 1218, "response": "Alpha"}, "18": {"stimulus": 59, "trial": 18, "rt": 791, "response": "Beta"}, "31": {"stimulus": 63, "trial": 31, "rt": 1185, "response": "Beta"}, "30": {"stimulus": 38, "trial": 30, "rt": 1421, "response": "Alpha"}, "37": {"stimulus": 65, "trial": 37, "rt": 1264, "response": "Beta"}, "36": {"stimulus": 41, "trial": 36, "rt": 2051, "response": "Alpha"}, "35": {"stimulus": 74, "trial": 35, "rt": 723, "response": "Beta"}, "34": {"stimulus": 73, "trial": 34, "rt": 1187, "response": "Beta"}, "33": {"stimulus": 1, "trial": 33, "rt": 819, "response": "Alpha"}, "55": {"stimulus": 42, "trial": 55, "rt": 6130, "response": "Beta"}, "74": {"stimulus": 18, "trial": 74, "rt": 1263, "response": "Alpha"}, "32": {"stimulus": 45, "trial": 32, "rt": 4941, "response": "Alpha"}, "57": {"stimulus": 3, "trial": 57, "rt": 803, "response": "Alpha"}, "50": {"stimulus": 7, "trial": 50, "rt": 952, "response": "Alpha"}}}