{"generation": {"1": {"stimulus": 0, "trial": 1, "rt": 7706}, "0": {"stimulus": 72, "trial": 0, "rt": 10929}, "3": {"stimulus": 45, "trial": 3, "rt": 6234}, "2": {"stimulus": 27, "trial": 2, "rt": 4890}}, "info": {"finish": 1488823057088, "participant": 187, "exposed": true, "lab": false, "start": 1488822831153, "counterbalance": 7, "condition": "Cluster", "browser": {"platform": "Linux x86_64", "userAgent": "Mozilla/5.0 (X11; CrOS x86_64 9000.91.0) AppleWebKit/537.36 (KHTML, like Gecko) Chrome/56.0.2924.110 Safari/537.36"}}, "experiment": {"Paradigm": "TACL", "Stimuli": "Size-Color Squares", "Experiment": "Generating-Categories"}, "observation": {"11": {"stimulus": 16, "trial": 11, "rt": 1795}, "10": {"stimulus": 14, "trial": 10, "rt": 1386}, "1": {"stimulus": 16, "trial": 1, "rt": 6402}, "0": {"stimulus": 34, "trial": 0, "rt": 3102}, "3": {"stimulus": 14, "trial": 3, "rt": 1402}, "2": {"stimulus": 32, "trial": 2, "rt": 1456}, "5": {"stimulus": 16, "trial": 5, "rt": 1058}, "4": {"stimulus": 34, "trial": 4, "rt": 1074}, "7": {"stimulus": 14, "trial": 7, "rt": 1051}, "6": {"stimulus": 32, "trial": 6, "rt": 1050}, "9": {"stimulus": 34, "trial": 9, "rt": 1059}, "8": {"stimulus": 32, "trial": 8, "rt": 1036}}, "generalization": {"56": {"stimulus": 71, "trial": 56, "rt": 715, "response": "Alpha"}, "77": {"stimulus": 27, "trial": 77, "rt": 1146, "response": "Beta"}, "54": {"stimulus": 68, "trial": 54, "rt": 787, "response": "Alpha"}, "42": {"stimulus": 55, "trial": 42, "rt": 675, "response": "Beta"}, "48": {"stimulus": 64, "trial": 48, "rt": 651, "response": "Beta"}, "43": {"stimulus": 23, "trial": 43, "rt": 1259, "response": "Alpha"}, "60": {"stimulus": 74, "trial": 60, "rt": 563, "response": "Beta"}, "61": {"stimulus": 75, "trial": 61, "rt": 595, "response": "Beta"}, "62": {"stimulus": 43, "trial": 62, "rt": 835, "response": "Alpha"}, "63": {"stimulus": 46, "trial": 63, "rt": 891, "response": "Beta"}, "64": {"stimulus": 37, "trial": 64, "rt": 1195, "response": "Beta"}, "49": {"stimulus": 79, "trial": 49, "rt": 963, "response": "Alpha"}, "66": {"stimulus": 76, "trial": 66, "rt": 756, "response": "Alpha"}, "67": {"stimulus": 9, "trial": 67, "rt": 1019, "response": "Beta"}, "68": {"stimulus": 28, "trial": 68, "rt": 827, "response": "Beta"}, "69": {"stimulus": 42, "trial": 69, "rt": 1043, "response": "Alpha"}, "80": {"stimulus": 18, "trial": 80, "rt": 883, "response": "Beta"}, "52": {"stimulus": 16, "trial": 52, "rt": 523, "response": "Alpha"}, "53": {"stimulus": 26, "trial": 53, "rt": 451, "response": "Alpha"}, "24": {"stimulus": 78, "trial": 24, "rt": 675, "response": "Alpha"}, "25": {"stimulus": 44, "trial": 25, "rt": 587, "response": "Alpha"}, "26": {"stimulus": 30, "trial": 26, "rt": 1443, "response": "Beta"}, "27": {"stimulus": 41, "trial": 27, "rt": 2123, "response": "Alpha"}, "20": {"stimulus": 69, "trial": 20, "rt": 1140, "response": "Alpha"}, "21": {"stimulus": 13, "trial": 21, "rt": 1506, "response": "Alpha"}, "22": {"stimulus": 57, "trial": 22, "rt": 1883, "response": "Alpha"}, "23": {"stimulus": 15, "trial": 23, "rt": 779, "response": "Alpha"}, "46": {"stimulus": 11, "trial": 46, "rt": 1243, "response": "Beta"}, "47": {"stimulus": 38, "trial": 47, "rt": 691, "response": "Beta"}, "44": {"stimulus": 60, "trial": 44, "rt": 594, "response": "Alpha"}, "45": {"stimulus": 66, "trial": 45, "rt": 1515, "response": "Alpha"}, "28": {"stimulus": 72, "trial": 28, "rt": 929, "response": "Beta"}, "29": {"stimulus": 5, "trial": 29, "rt": 1227, "response": "Alpha"}, "40": {"stimulus": 20, "trial": 40, "rt": 1291, "response": "Beta"}, "41": {"stimulus": 45, "trial": 41, "rt": 691, "response": "Beta"}, "1": {"stimulus": 4, "trial": 1, "rt": 955, "response": "Alpha"}, "0": {"stimulus": 73, "trial": 0, "rt": 3160, "response": "Beta"}, "3": {"stimulus": 2, "trial": 3, "rt": 1115, "response": "Alpha"}, "2": {"stimulus": 51, "trial": 2, "rt": 499, "response": "Alpha"}, "5": {"stimulus": 35, "trial": 5, "rt": 434, "response": "Alpha"}, "4": {"stimulus": 14, "trial": 4, "rt": 747, "response": "Alpha"}, "7": {"stimulus": 54, "trial": 7, "rt": 522, "response": "Beta"}, "6": {"stimulus": 1, "trial": 6, "rt": 900, "response": "Beta"}, "9": {"stimulus": 53, "trial": 9, "rt": 524, "response": "Alpha"}, "8": {"stimulus": 62, "trial": 8, "rt": 964, "response": "Alpha"}, "78": {"stimulus": 67, "trial": 78, "rt": 1020, "response": "Alpha"}, "51": {"stimulus": 32, "trial": 51, "rt": 1067, "response": "Alpha"}, "39": {"stimulus": 29, "trial": 39, "rt": 1291, "response": "Beta"}, "65": {"stimulus": 58, "trial": 65, "rt": 1099, "response": "Alpha"}, "76": {"stimulus": 22, "trial": 76, "rt": 2084, "response": "Alpha"}, "75": {"stimulus": 65, "trial": 75, "rt": 2122, "response": "Beta"}, "38": {"stimulus": 25, "trial": 38, "rt": 667, "response": "Alpha"}, "73": {"stimulus": 39, "trial": 73, "rt": 1067, "response": "Alpha"}, "72": {"stimulus": 10, "trial": 72, "rt": 1395, "response": "Beta"}, "71": {"stimulus": 49, "trial": 71, "rt": 883, "response": "Alpha"}, "70": {"stimulus": 31, "trial": 70, "rt": 1739, "response": "Alpha"}, "59": {"stimulus": 36, "trial": 59, "rt": 1539, "response": "Beta"}, "79": {"stimulus": 48, "trial": 79, "rt": 4290, "response": "Alpha"}, "58": {"stimulus": 80, "trial": 58, "rt": 563, "response": "Alpha"}, "11": {"stimulus": 19, "trial": 11, "rt": 962, "response": "Beta"}, "10": {"stimulus": 50, "trial": 10, "rt": 754, "response": "Alpha"}, "13": {"stimulus": 52, "trial": 13, "rt": 450, "response": "Alpha"}, "12": {"stimulus": 3, "trial": 12, "rt": 1026, "response": "Alpha"}, "15": {"stimulus": 59, "trial": 15, "rt": 674, "response": "Alpha"}, "14": {"stimulus": 8, "trial": 14, "rt": 459, "response": "Alpha"}, "17": {"stimulus": 34, "trial": 17, "rt": 1145, "response": "Alpha"}, "16": {"stimulus": 56, "trial": 16, "rt": 1051, "response": "Beta"}, "19": {"stimulus": 77, "trial": 19, "rt": 842, "response": "Alpha"}, "18": {"stimulus": 70, "trial": 18, "rt": 602, "response": "Alpha"}, "31": {"stimulus": 17, "trial": 31, "rt": 515, "response": "Alpha"}, "30": {"stimulus": 7, "trial": 30, "rt": 531, "response": "Alpha"}, "37": {"stimulus": 6, "trial": 37, "rt": 1459, "response": "Alpha"}, "36": {"stimulus": 47, "trial": 36, "rt": 1211, "response": "Beta"}, "35": {"stimulus": 12, "trial": 35, "rt": 1723, "response": "Alpha"}, "34": {"stimulus": 21, "trial": 34, "rt": 1371, "response": "Alpha"}, "33": {"stimulus": 63, "trial": 33, "rt": 899, "response": "Beta"}, "55": {"stimulus": 33, "trial": 55, "rt": 875, "response": "Alpha"}, "74": {"stimulus": 24, "trial": 74, "rt": 675, "response": "Alpha"}, "32": {"stimulus": 40, "trial": 32, "rt": 923, "response": "Alpha"}, "57": {"stimulus": 61, "trial": 57, "rt": 467, "response": "Alpha"}, "50": {"stimulus": 0, "trial": 50, "rt": 995, "response": "Beta"}}}