{"generation": {"1": {"stimulus": 74, "trial": 1, "rt": 5217}, "0": {"stimulus": 76, "trial": 0, "rt": 10489}, "3": {"stimulus": 80, "trial": 3, "rt": 3730}, "2": {"stimulus": 72, "trial": 2, "rt": 5112}}, "info": {"finish": 1488823071865, "participant": 188, "exposed": true, "lab": false, "start": 1488822832101, "counterbalance": 1, "condition": "Row", "browser": {"platform": "Win32", "userAgent": "Mozilla/5.0 (Windows NT 10.0) AppleWebKit/537.36 (KHTML, like Gecko) Chrome/56.0.2924.87 Safari/537.36"}}, "experiment": {"Paradigm": "TACL", "Stimuli": "Size-Color Squares", "Experiment": "Generating-Categories"}, "observation": {"11": {"stimulus": 16, "trial": 11, "rt": 923}, "10": {"stimulus": 14, "trial": 10, "rt": 4953}, "1": {"stimulus": 10, "trial": 1, "rt": 1434}, "0": {"stimulus": 16, "trial": 0, "rt": 2207}, "3": {"stimulus": 12, "trial": 3, "rt": 1043}, "2": {"stimulus": 14, "trial": 2, "rt": 1259}, "5": {"stimulus": 14, "trial": 5, "rt": 931}, "4": {"stimulus": 12, "trial": 4, "rt": 947}, "7": {"stimulus": 16, "trial": 7, "rt": 1649}, "6": {"stimulus": 10, "trial": 6, "rt": 966}, "9": {"stimulus": 12, "trial": 9, "rt": 1672}, "8": {"stimulus": 10, "trial": 8, "rt": 2286}}, "generalization": {"56": {"stimulus": 75, "trial": 56, "rt": 845, "response": "Beta"}, "77": {"stimulus": 74, "trial": 77, "rt": 594, "response": "Alpha"}, "54": {"stimulus": 56, "trial": 54, "rt": 1304, "response": "Beta"}, "42": {"stimulus": 46, "trial": 42, "rt": 897, "response": "Beta"}, "48": {"stimulus": 76, "trial": 48, "rt": 496, "response": "Beta"}, "43": {"stimulus": 42, "trial": 43, "rt": 1281, "response": "Beta"}, "60": {"stimulus": 80, "trial": 60, "rt": 752, "response": "Beta"}, "61": {"stimulus": 20, "trial": 61, "rt": 870, "response": "Alpha"}, "62": {"stimulus": 40, "trial": 62, "rt": 2456, "response": "Alpha"}, "63": {"stimulus": 19, "trial": 63, "rt": 823, "response": "Alpha"}, "64": {"stimulus": 71, "trial": 64, "rt": 705, "response": "Beta"}, "49": {"stimulus": 58, "trial": 49, "rt": 1294, "response": "Beta"}, "66": {"stimulus": 21, "trial": 66, "rt": 1044, "response": "Alpha"}, "67": {"stimulus": 29, "trial": 67, "rt": 502, "response": "Alpha"}, "68": {"stimulus": 43, "trial": 68, "rt": 549, "response": "Alpha"}, "69": {"stimulus": 73, "trial": 69, "rt": 795, "response": "Beta"}, "80": {"stimulus": 6, "trial": 80, "rt": 833, "response": "Alpha"}, "52": {"stimulus": 2, "trial": 52, "rt": 768, "response": "Alpha"}, "53": {"stimulus": 77, "trial": 53, "rt": 954, "response": "Beta"}, "24": {"stimulus": 57, "trial": 24, "rt": 2848, "response": "Beta"}, "25": {"stimulus": 30, "trial": 25, "rt": 1527, "response": "Alpha"}, "26": {"stimulus": 48, "trial": 26, "rt": 520, "response": "Alpha"}, "27": {"stimulus": 45, "trial": 27, "rt": 593, "response": "Beta"}, "20": {"stimulus": 34, "trial": 20, "rt": 2790, "response": "Beta"}, "21": {"stimulus": 49, "trial": 21, "rt": 1083, "response": "Beta"}, "22": {"stimulus": 32, "trial": 22, "rt": 481, "response": "Beta"}, "23": {"stimulus": 3, "trial": 23, "rt": 810, "response": "Alpha"}, "46": {"stimulus": 64, "trial": 46, "rt": 1066, "response": "Beta"}, "47": {"stimulus": 66, "trial": 47, "rt": 605, "response": "Beta"}, "44": {"stimulus": 16, "trial": 44, "rt": 820, "response": "Alpha"}, "45": {"stimulus": 51, "trial": 45, "rt": 717, "response": "Beta"}, "28": {"stimulus": 44, "trial": 28, "rt": 3230, "response": "Beta"}, "29": {"stimulus": 17, "trial": 29, "rt": 972, "response": "Alpha"}, "40": {"stimulus": 36, "trial": 40, "rt": 4632, "response": "Beta"}, "41": {"stimulus": 23, "trial": 41, "rt": 1184, "response": "Alpha"}, "1": {"stimulus": 0, "trial": 1, "rt": 3490, "response": "Beta"}, "0": {"stimulus": 33, "trial": 0, "rt": 2181, "response": "Alpha"}, "3": {"stimulus": 52, "trial": 3, "rt": 1116, "response": "Beta"}, "2": {"stimulus": 47, "trial": 2, "rt": 1831, "response": "Beta"}, "5": {"stimulus": 78, "trial": 5, "rt": 988, "response": "Beta"}, "4": {"stimulus": 79, "trial": 4, "rt": 1281, "response": "Beta"}, "7": {"stimulus": 62, "trial": 7, "rt": 1162, "response": "Beta"}, "6": {"stimulus": 15, "trial": 6, "rt": 773, "response": "Alpha"}, "9": {"stimulus": 22, "trial": 9, "rt": 1655, "response": "Alpha"}, "8": {"stimulus": 26, "trial": 8, "rt": 1325, "response": "Alpha"}, "78": {"stimulus": 55, "trial": 78, "rt": 1464, "response": "Beta"}, "51": {"stimulus": 53, "trial": 51, "rt": 821, "response": "Beta"}, "39": {"stimulus": 63, "trial": 39, "rt": 3210, "response": "Beta"}, "65": {"stimulus": 31, "trial": 65, "rt": 1244, "response": "Alpha"}, "76": {"stimulus": 39, "trial": 76, "rt": 2020, "response": "Alpha"}, "75": {"stimulus": 4, "trial": 75, "rt": 880, "response": "Alpha"}, "38": {"stimulus": 14, "trial": 38, "rt": 5283, "response": "Alpha"}, "73": {"stimulus": 70, "trial": 73, "rt": 1787, "response": "Beta"}, "72": {"stimulus": 69, "trial": 72, "rt": 690, "response": "Beta"}, "71": {"stimulus": 18, "trial": 71, "rt": 703, "response": "Alpha"}, "70": {"stimulus": 7, "trial": 70, "rt": 824, "response": "Alpha"}, "59": {"stimulus": 27, "trial": 59, "rt": 422, "response": "Beta"}, "79": {"stimulus": 65, "trial": 79, "rt": 635, "response": "Beta"}, "58": {"stimulus": 54, "trial": 58, "rt": 765, "response": "Beta"}, "11": {"stimulus": 60, "trial": 11, "rt": 936, "response": "Beta"}, "10": {"stimulus": 9, "trial": 10, "rt": 680, "response": "Alpha"}, "13": {"stimulus": 61, "trial": 13, "rt": 1461, "response": "Beta"}, "12": {"stimulus": 38, "trial": 12, "rt": 5107, "response": "Alpha"}, "15": {"stimulus": 41, "trial": 15, "rt": 929, "response": "Alpha"}, "14": {"stimulus": 59, "trial": 14, "rt": 1057, "response": "Beta"}, "17": {"stimulus": 5, "trial": 17, "rt": 1009, "response": "Alpha"}, "16": {"stimulus": 50, "trial": 16, "rt": 1017, "response": "Beta"}, "19": {"stimulus": 13, "trial": 19, "rt": 712, "response": "Alpha"}, "18": {"stimulus": 11, "trial": 18, "rt": 1118, "response": "Alpha"}, "31": {"stimulus": 1, "trial": 31, "rt": 850, "response": "Alpha"}, "30": {"stimulus": 8, "trial": 30, "rt": 903, "response": "Alpha"}, "37": {"stimulus": 12, "trial": 37, "rt": 1036, "response": "Alpha"}, "36": {"stimulus": 68, "trial": 36, "rt": 857, "response": "Beta"}, "35": {"stimulus": 24, "trial": 35, "rt": 783, "response": "Beta"}, "34": {"stimulus": 37, "trial": 34, "rt": 1096, "response": "Beta"}, "33": {"stimulus": 10, "trial": 33, "rt": 1423, "response": "Alpha"}, "55": {"stimulus": 25, "trial": 55, "rt": 758, "response": "Alpha"}, "74": {"stimulus": 28, "trial": 74, "rt": 1731, "response": "Alpha"}, "32": {"stimulus": 35, "trial": 32, "rt": 2004, "response": "Alpha"}, "57": {"stimulus": 67, "trial": 57, "rt": 929, "response": "Beta"}, "50": {"stimulus": 72, "trial": 50, "rt": 1026, "response": "Beta"}}}