{"generation": {"1": {"stimulus": 23, "trial": 1, "rt": 5931}, "0": {"stimulus": 29, "trial": 0, "rt": 7961}, "3": {"stimulus": 12, "trial": 3, "rt": 3994}, "2": {"stimulus": 22, "trial": 2, "rt": 6090}}, "info": {"participant": 189, "exposed": true, "lab": false, "start": 1488822833379, "counterbalance": 1, "condition": "Row", "browser": {"platform": "Win32", "userAgent": "Mozilla/5.0 (Windows NT 6.1; WOW64) AppleWebKit/537.36 (KHTML, like Gecko) Chrome/56.0.2924.87 Safari/537.36"}}, "experiment": {"Paradigm": "TACL", "Stimuli": "Size-Color Squares", "Experiment": "Generating-Categories"}, "observation": {"11": {"stimulus": 10, "trial": 11, "rt": 1147}, "10": {"stimulus": 16, "trial": 10, "rt": 1300}, "1": {"stimulus": 10, "trial": 1, "rt": 1780}, "0": {"stimulus": 16, "trial": 0, "rt": 2941}, "3": {"stimulus": 12, "trial": 3, "rt": 1410}, "2": {"stimulus": 14, "trial": 2, "rt": 1563}, "5": {"stimulus": 10, "trial": 5, "rt": 1723}, "4": {"stimulus": 12, "trial": 4, "rt": 1306}, "7": {"stimulus": 14, "trial": 7, "rt": 1107}, "6": {"stimulus": 16, "trial": 6, "rt": 1155}, "9": {"stimulus": 14, "trial": 9, "rt": 1531}, "8": {"stimulus": 12, "trial": 8, "rt": 1259}}, "generalization": {"56": {"stimulus": 53, "trial": 56, "rt": 1499, "response": "Beta"}, "77": {"stimulus": 68, "trial": 77, "rt": 947, "response": "Beta"}, "54": {"stimulus": 56, "trial": 54, "rt": 1163, "response": "Beta"}, "42": {"stimulus": 35, "trial": 42, "rt": 1042, "response": "Alpha"}, "48": {"stimulus": 50, "trial": 48, "rt": 947, "response": "Beta"}, "43": {"stimulus": 76, "trial": 43, "rt": 906, "response": "Beta"}, "60": {"stimulus": 67, "trial": 60, "rt": 843, "response": "Beta"}, "61": {"stimulus": 66, "trial": 61, "rt": 859, "response": "Beta"}, "62": {"stimulus": 49, "trial": 62, "rt": 1538, "response": "Beta"}, "63": {"stimulus": 19, "trial": 63, "rt": 827, "response": "Alpha"}, "64": {"stimulus": 7, "trial": 64, "rt": 667, "response": "Alpha"}, "49": {"stimulus": 5, "trial": 49, "rt": 1354, "response": "Alpha"}, "66": {"stimulus": 6, "trial": 66, "rt": 603, "response": "Alpha"}, "67": {"stimulus": 45, "trial": 67, "rt": 907, "response": "Beta"}, "68": {"stimulus": 60, "trial": 68, "rt": 979, "response": "Beta"}, "69": {"stimulus": 40, "trial": 69, "rt": 923, "response": "Beta"}, "80": {"stimulus": 28, "trial": 80, "rt": 930, "response": "Alpha"}, "52": {"stimulus": 27, "trial": 52, "rt": 1194, "response": "Alpha"}, "53": {"stimulus": 20, "trial": 53, "rt": 763, "response": "Alpha"}, "24": {"stimulus": 72, "trial": 24, "rt": 635, "response": "Beta"}, "25": {"stimulus": 57, "trial": 25, "rt": 563, "response": "Beta"}, "26": {"stimulus": 78, "trial": 26, "rt": 986, "response": "Beta"}, "27": {"stimulus": 3, "trial": 27, "rt": 2115, "response": "Alpha"}, "20": {"stimulus": 36, "trial": 20, "rt": 2204, "response": "Alpha"}, "21": {"stimulus": 30, "trial": 21, "rt": 1387, "response": "Beta"}, "22": {"stimulus": 74, "trial": 22, "rt": 667, "response": "Beta"}, "23": {"stimulus": 73, "trial": 23, "rt": 603, "response": "Beta"}, "46": {"stimulus": 61, "trial": 46, "rt": 1827, "response": "Beta"}, "47": {"stimulus": 70, "trial": 47, "rt": 723, "response": "Beta"}, "44": {"stimulus": 29, "trial": 44, "rt": 1347, "response": "Alpha"}, "45": {"stimulus": 17, "trial": 45, "rt": 1379, "response": "Alpha"}, "28": {"stimulus": 15, "trial": 28, "rt": 747, "response": "Alpha"}, "29": {"stimulus": 80, "trial": 29, "rt": 1387, "response": "Beta"}, "40": {"stimulus": 24, "trial": 40, "rt": 1122, "response": "Alpha"}, "41": {"stimulus": 32, "trial": 41, "rt": 1114, "response": "Alpha"}, "1": {"stimulus": 65, "trial": 1, "rt": 1602, "response": "Beta"}, "0": {"stimulus": 58, "trial": 0, "rt": 2522, "response": "Beta"}, "3": {"stimulus": 18, "trial": 3, "rt": 1035, "response": "Alpha"}, "2": {"stimulus": 46, "trial": 2, "rt": 1115, "response": "Beta"}, "5": {"stimulus": 75, "trial": 5, "rt": 1243, "response": "Beta"}, "4": {"stimulus": 38, "trial": 4, "rt": 1155, "response": "Beta"}, "7": {"stimulus": 0, "trial": 7, "rt": 1043, "response": "Alpha"}, "6": {"stimulus": 33, "trial": 6, "rt": 1563, "response": "Alpha"}, "9": {"stimulus": 12, "trial": 9, "rt": 1060, "response": "Alpha"}, "8": {"stimulus": 59, "trial": 8, "rt": 938, "response": "Beta"}, "78": {"stimulus": 47, "trial": 78, "rt": 963, "response": "Beta"}, "51": {"stimulus": 4, "trial": 51, "rt": 755, "response": "Alpha"}, "39": {"stimulus": 23, "trial": 39, "rt": 1043, "response": "Alpha"}, "65": {"stimulus": 43, "trial": 65, "rt": 707, "response": "Alpha"}, "76": {"stimulus": 14, "trial": 76, "rt": 1099, "response": "Alpha"}, "75": {"stimulus": 39, "trial": 75, "rt": 1307, "response": "Beta"}, "38": {"stimulus": 52, "trial": 38, "rt": 955, "response": "Alpha"}, "73": {"stimulus": 25, "trial": 73, "rt": 1475, "response": "Beta"}, "72": {"stimulus": 22, "trial": 72, "rt": 668, "response": "Beta"}, "71": {"stimulus": 51, "trial": 71, "rt": 947, "response": "Beta"}, "70": {"stimulus": 21, "trial": 70, "rt": 1195, "response": "Alpha"}, "59": {"stimulus": 64, "trial": 59, "rt": 883, "response": "Beta"}, "79": {"stimulus": 1, "trial": 79, "rt": 1171, "response": "Alpha"}, "58": {"stimulus": 13, "trial": 58, "rt": 1099, "response": "Alpha"}, "11": {"stimulus": 62, "trial": 11, "rt": 947, "response": "Beta"}, "10": {"stimulus": 34, "trial": 10, "rt": 1035, "response": "Alpha"}, "13": {"stimulus": 31, "trial": 13, "rt": 747, "response": "Beta"}, "12": {"stimulus": 48, "trial": 12, "rt": 827, "response": "Beta"}, "15": {"stimulus": 11, "trial": 15, "rt": 969, "response": "Alpha"}, "14": {"stimulus": 9, "trial": 14, "rt": 1123, "response": "Alpha"}, "17": {"stimulus": 10, "trial": 17, "rt": 1147, "response": "Alpha"}, "16": {"stimulus": 63, "trial": 16, "rt": 994, "response": "Beta"}, "19": {"stimulus": 79, "trial": 19, "rt": 883, "response": "Beta"}, "18": {"stimulus": 16, "trial": 18, "rt": 2954, "response": "Alpha"}, "31": {"stimulus": 69, "trial": 31, "rt": 1962, "response": "Beta"}, "30": {"stimulus": 41, "trial": 30, "rt": 5796, "response": "Alpha"}, "37": {"stimulus": 54, "trial": 37, "rt": 1500, "response": "Beta"}, "36": {"stimulus": 42, "trial": 36, "rt": 1299, "response": "Beta"}, "35": {"stimulus": 77, "trial": 35, "rt": 915, "response": "Beta"}, "34": {"stimulus": 8, "trial": 34, "rt": 1219, "response": "Alpha"}, "33": {"stimulus": 55, "trial": 33, "rt": 1718, "response": "Beta"}, "55": {"stimulus": 44, "trial": 55, "rt": 979, "response": "Beta"}, "74": {"stimulus": 71, "trial": 74, "rt": 1547, "response": "Beta"}, "32": {"stimulus": 37, "trial": 32, "rt": 1506, "response": "Alpha"}, "57": {"stimulus": 26, "trial": 57, "rt": 1107, "response": "Alpha"}, "50": {"stimulus": 2, "trial": 50, "rt": 746, "response": "Alpha"}}}