{"generation": {"1": {"stimulus": 80, "trial": 1, "rt": 2770}, "0": {"stimulus": 76, "trial": 0, "rt": 9045}, "3": {"stimulus": 77, "trial": 3, "rt": 2870}, "2": {"stimulus": 75, "trial": 2, "rt": 2815}}, "info": {"participant": 190, "exposed": true, "lab": false, "start": 1488822833668, "counterbalance": 2, "condition": "Row", "browser": {"platform": "Win32", "userAgent": "Mozilla/5.0 (Windows NT 6.1; WOW64) AppleWebKit/537.36 (KHTML, like Gecko) Chrome/55.0.2883.87 Safari/537.36"}}, "experiment": {"Paradigm": "TACL", "Stimuli": "Size-Color Squares", "Experiment": "Generating-Categories"}, "observation": {"11": {"stimulus": 16, "trial": 11, "rt": 10131}, "10": {"stimulus": 14, "trial": 10, "rt": 883}, "1": {"stimulus": 10, "trial": 1, "rt": 2914}, "0": {"stimulus": 12, "trial": 0, "rt": 34621}, "3": {"stimulus": 14, "trial": 3, "rt": 1183}, "2": {"stimulus": 16, "trial": 2, "rt": 1468}, "5": {"stimulus": 16, "trial": 5, "rt": 947}, "4": {"stimulus": 12, "trial": 4, "rt": 968}, "7": {"stimulus": 14, "trial": 7, "rt": 7354}, "6": {"stimulus": 10, "trial": 6, "rt": 1064}, "9": {"stimulus": 10, "trial": 9, "rt": 877}, "8": {"stimulus": 12, "trial": 8, "rt": 823}}, "generalization": {"56": {"stimulus": 77, "trial": 56, "rt": 461, "response": "Beta"}, "77": {"stimulus": 61, "trial": 77, "rt": 461, "response": "Beta"}, "54": {"stimulus": 76, "trial": 54, "rt": 743, "response": "Beta"}, "42": {"stimulus": 20, "trial": 42, "rt": 1611, "response": "Beta"}, "48": {"stimulus": 72, "trial": 48, "rt": 838, "response": "Beta"}, "43": {"stimulus": 16, "trial": 43, "rt": 1586, "response": "Alpha"}, "60": {"stimulus": 36, "trial": 60, "rt": 534, "response": "Beta"}, "61": {"stimulus": 26, "trial": 61, "rt": 987, "response": "Beta"}, "62": {"stimulus": 49, "trial": 62, "rt": 480, "response": "Beta"}, "63": {"stimulus": 28, "trial": 63, "rt": 695, "response": "Beta"}, "64": {"stimulus": 41, "trial": 64, "rt": 511, "response": "Beta"}, "49": {"stimulus": 27, "trial": 49, "rt": 739, "response": "Beta"}, "66": {"stimulus": 5, "trial": 66, "rt": 829, "response": "Alpha"}, "67": {"stimulus": 31, "trial": 67, "rt": 776, "response": "Beta"}, "68": {"stimulus": 75, "trial": 68, "rt": 825, "response": "Beta"}, "69": {"stimulus": 7, "trial": 69, "rt": 794, "response": "Alpha"}, "80": {"stimulus": 70, "trial": 80, "rt": 790, "response": "Beta"}, "52": {"stimulus": 29, "trial": 52, "rt": 8860, "response": "Beta"}, "53": {"stimulus": 30, "trial": 53, "rt": 763, "response": "Beta"}, "24": {"stimulus": 8, "trial": 24, "rt": 714, "response": "Alpha"}, "25": {"stimulus": 66, "trial": 25, "rt": 551, "response": "Beta"}, "26": {"stimulus": 32, "trial": 26, "rt": 763, "response": "Beta"}, "27": {"stimulus": 1, "trial": 27, "rt": 743, "response": "Alpha"}, "20": {"stimulus": 25, "trial": 20, "rt": 715, "response": "Alpha"}, "21": {"stimulus": 47, "trial": 21, "rt": 792, "response": "Beta"}, "22": {"stimulus": 9, "trial": 22, "rt": 748, "response": "Alpha"}, "23": {"stimulus": 2, "trial": 23, "rt": 762, "response": "Alpha"}, "46": {"stimulus": 17, "trial": 46, "rt": 670, "response": "Alpha"}, "47": {"stimulus": 18, "trial": 47, "rt": 997, "response": "Beta"}, "44": {"stimulus": 19, "trial": 44, "rt": 793, "response": "Beta"}, "45": {"stimulus": 55, "trial": 45, "rt": 549, "response": "Beta"}, "28": {"stimulus": 42, "trial": 28, "rt": 599, "response": "Beta"}, "29": {"stimulus": 79, "trial": 29, "rt": 529, "response": "Beta"}, "40": {"stimulus": 74, "trial": 40, "rt": 951, "response": "Beta"}, "41": {"stimulus": 51, "trial": 41, "rt": 44482, "response": "Beta"}, "1": {"stimulus": 60, "trial": 1, "rt": 996, "response": "Alpha"}, "0": {"stimulus": 78, "trial": 0, "rt": 2939, "response": "Beta"}, "3": {"stimulus": 14, "trial": 3, "rt": 2047, "response": "Alpha"}, "2": {"stimulus": 35, "trial": 2, "rt": 1797, "response": "Beta"}, "5": {"stimulus": 22, "trial": 5, "rt": 1196, "response": "Alpha"}, "4": {"stimulus": 53, "trial": 4, "rt": 712, "response": "Beta"}, "7": {"stimulus": 48, "trial": 7, "rt": 678, "response": "Beta"}, "6": {"stimulus": 46, "trial": 6, "rt": 644, "response": "Beta"}, "9": {"stimulus": 56, "trial": 9, "rt": 478, "response": "Beta"}, "8": {"stimulus": 65, "trial": 8, "rt": 556, "response": "Beta"}, "78": {"stimulus": 80, "trial": 78, "rt": 1110, "response": "Beta"}, "51": {"stimulus": 45, "trial": 51, "rt": 1120, "response": "Beta"}, "39": {"stimulus": 57, "trial": 39, "rt": 1681, "response": "Beta"}, "65": {"stimulus": 38, "trial": 65, "rt": 593, "response": "Beta"}, "76": {"stimulus": 69, "trial": 76, "rt": 30560, "response": "Beta"}, "75": {"stimulus": 34, "trial": 75, "rt": 759, "response": "Beta"}, "38": {"stimulus": 37, "trial": 38, "rt": 583, "response": "Beta"}, "73": {"stimulus": 50, "trial": 73, "rt": 463, "response": "Beta"}, "72": {"stimulus": 11, "trial": 72, "rt": 723, "response": "Alpha"}, "71": {"stimulus": 33, "trial": 71, "rt": 698, "response": "Beta"}, "70": {"stimulus": 4, "trial": 70, "rt": 672, "response": "Alpha"}, "59": {"stimulus": 3, "trial": 59, "rt": 744, "response": "Alpha"}, "79": {"stimulus": 58, "trial": 79, "rt": 583, "response": "Beta"}, "58": {"stimulus": 40, "trial": 58, "rt": 644, "response": "Beta"}, "11": {"stimulus": 59, "trial": 11, "rt": 442, "response": "Beta"}, "10": {"stimulus": 54, "trial": 10, "rt": 478, "response": "Beta"}, "13": {"stimulus": 71, "trial": 13, "rt": 613, "response": "Beta"}, "12": {"stimulus": 44, "trial": 12, "rt": 1513, "response": "Beta"}, "15": {"stimulus": 52, "trial": 15, "rt": 453, "response": "Beta"}, "14": {"stimulus": 39, "trial": 14, "rt": 829, "response": "Beta"}, "17": {"stimulus": 67, "trial": 17, "rt": 485, "response": "Beta"}, "16": {"stimulus": 10, "trial": 16, "rt": 746, "response": "Alpha"}, "19": {"stimulus": 13, "trial": 19, "rt": 663, "response": "Alpha"}, "18": {"stimulus": 24, "trial": 18, "rt": 903, "response": "Alpha"}, "31": {"stimulus": 62, "trial": 31, "rt": 415, "response": "Beta"}, "30": {"stimulus": 68, "trial": 30, "rt": 432, "response": "Beta"}, "37": {"stimulus": 23, "trial": 37, "rt": 1381, "response": "Beta"}, "36": {"stimulus": 15, "trial": 36, "rt": 43710, "response": "Alpha"}, "35": {"stimulus": 64, "trial": 35, "rt": 520, "response": "Beta"}, "34": {"stimulus": 6, "trial": 34, "rt": 746, "response": "Alpha"}, "33": {"stimulus": 63, "trial": 33, "rt": 424, "response": "Beta"}, "55": {"stimulus": 12, "trial": 55, "rt": 829, "response": "Alpha"}, "74": {"stimulus": 73, "trial": 74, "rt": 461, "response": "Beta"}, "32": {"stimulus": 43, "trial": 32, "rt": 801, "response": "Beta"}, "57": {"stimulus": 0, "trial": 57, "rt": 664, "response": "Alpha"}, "50": {"stimulus": 21, "trial": 50, "rt": 1682, "response": "Beta"}}}