{"generation": {"1": {"stimulus": 18, "trial": 1, "rt": 12861}, "0": {"stimulus": 0, "trial": 0, "rt": 15293}, "3": {"stimulus": 2, "trial": 3, "rt": 5395}, "2": {"stimulus": 9, "trial": 2, "rt": 18455}}, "info": {"participant": 191, "exposed": true, "lab": false, "start": 1488822822716, "counterbalance": 5, "condition": "Row", "browser": {"platform": "Win32", "userAgent": "Mozilla/5.0 (Windows NT 6.1; WOW64; rv:51.0) Gecko/20100101 Firefox/51.0"}}, "experiment": {"Paradigm": "TACL", "Stimuli": "Size-Color Squares", "Experiment": "Generating-Categories"}, "observation": {"11": {"stimulus": 16, "trial": 11, "rt": 1284}, "10": {"stimulus": 10, "trial": 10, "rt": 1560}, "1": {"stimulus": 12, "trial": 1, "rt": 1921}, "0": {"stimulus": 10, "trial": 0, "rt": 2705}, "3": {"stimulus": 16, "trial": 3, "rt": 1351}, "2": {"stimulus": 14, "trial": 2, "rt": 1549}, "5": {"stimulus": 16, "trial": 5, "rt": 1017}, "4": {"stimulus": 10, "trial": 4, "rt": 1825}, "7": {"stimulus": 12, "trial": 7, "rt": 1214}, "6": {"stimulus": 14, "trial": 6, "rt": 1367}, "9": {"stimulus": 12, "trial": 9, "rt": 1129}, "8": {"stimulus": 14, "trial": 8, "rt": 1195}}, "generalization": {"56": {"stimulus": 80, "trial": 56, "rt": 852, "response": "Alpha"}, "77": {"stimulus": 76, "trial": 77, "rt": 752, "response": "Alpha"}, "54": {"stimulus": 17, "trial": 54, "rt": 693, "response": "Beta"}, "42": {"stimulus": 67, "trial": 42, "rt": 446, "response": "Alpha"}, "48": {"stimulus": 69, "trial": 48, "rt": 1104, "response": "Alpha"}, "43": {"stimulus": 13, "trial": 43, "rt": 919, "response": "Beta"}, "60": {"stimulus": 30, "trial": 60, "rt": 987, "response": "Beta"}, "61": {"stimulus": 75, "trial": 61, "rt": 752, "response": "Alpha"}, "62": {"stimulus": 66, "trial": 62, "rt": 1132, "response": "Alpha"}, "63": {"stimulus": 32, "trial": 63, "rt": 752, "response": "Beta"}, "64": {"stimulus": 18, "trial": 64, "rt": 816, "response": "Beta"}, "49": {"stimulus": 21, "trial": 49, "rt": 882, "response": "Beta"}, "66": {"stimulus": 2, "trial": 66, "rt": 542, "response": "Beta"}, "67": {"stimulus": 31, "trial": 67, "rt": 506, "response": "Beta"}, "68": {"stimulus": 14, "trial": 68, "rt": 504, "response": "Beta"}, "69": {"stimulus": 15, "trial": 69, "rt": 408, "response": "Beta"}, "80": {"stimulus": 39, "trial": 80, "rt": 442, "response": "Beta"}, "52": {"stimulus": 60, "trial": 52, "rt": 555, "response": "Alpha"}, "53": {"stimulus": 20, "trial": 53, "rt": 762, "response": "Beta"}, "24": {"stimulus": 42, "trial": 24, "rt": 810, "response": "Beta"}, "25": {"stimulus": 65, "trial": 25, "rt": 732, "response": "Beta"}, "26": {"stimulus": 0, "trial": 26, "rt": 1000, "response": "Alpha"}, "27": {"stimulus": 59, "trial": 27, "rt": 1005, "response": "Beta"}, "20": {"stimulus": 7, "trial": 20, "rt": 1042, "response": "Alpha"}, "21": {"stimulus": 41, "trial": 21, "rt": 1732, "response": "Beta"}, "22": {"stimulus": 34, "trial": 22, "rt": 589, "response": "Beta"}, "23": {"stimulus": 4, "trial": 23, "rt": 879, "response": "Alpha"}, "46": {"stimulus": 37, "trial": 46, "rt": 1167, "response": "Beta"}, "47": {"stimulus": 11, "trial": 47, "rt": 1008, "response": "Beta"}, "44": {"stimulus": 54, "trial": 44, "rt": 693, "response": "Alpha"}, "45": {"stimulus": 71, "trial": 45, "rt": 720, "response": "Alpha"}, "28": {"stimulus": 6, "trial": 28, "rt": 750, "response": "Alpha"}, "29": {"stimulus": 43, "trial": 29, "rt": 819, "response": "Beta"}, "40": {"stimulus": 68, "trial": 40, "rt": 935, "response": "Beta"}, "41": {"stimulus": 70, "trial": 41, "rt": 998, "response": "Alpha"}, "1": {"stimulus": 48, "trial": 1, "rt": 643, "response": "Alpha"}, "0": {"stimulus": 52, "trial": 0, "rt": 2003, "response": "Alpha"}, "3": {"stimulus": 58, "trial": 3, "rt": 1313, "response": "Beta"}, "2": {"stimulus": 19, "trial": 2, "rt": 601, "response": "Alpha"}, "5": {"stimulus": 29, "trial": 5, "rt": 542, "response": "Alpha"}, "4": {"stimulus": 33, "trial": 4, "rt": 744, "response": "Alpha"}, "7": {"stimulus": 27, "trial": 7, "rt": 5899, "response": "Alpha"}, "6": {"stimulus": 47, "trial": 6, "rt": 878, "response": "Beta"}, "9": {"stimulus": 79, "trial": 9, "rt": 771, "response": "Beta"}, "8": {"stimulus": 38, "trial": 8, "rt": 866, "response": "Alpha"}, "78": {"stimulus": 44, "trial": 78, "rt": 683, "response": "Beta"}, "51": {"stimulus": 61, "trial": 51, "rt": 830, "response": "Alpha"}, "39": {"stimulus": 9, "trial": 39, "rt": 1020, "response": "Alpha"}, "65": {"stimulus": 55, "trial": 65, "rt": 623, "response": "Beta"}, "76": {"stimulus": 23, "trial": 76, "rt": 569, "response": "Beta"}, "75": {"stimulus": 46, "trial": 75, "rt": 515, "response": "Beta"}, "38": {"stimulus": 49, "trial": 38, "rt": 664, "response": "Beta"}, "73": {"stimulus": 25, "trial": 73, "rt": 481, "response": "Beta"}, "72": {"stimulus": 24, "trial": 72, "rt": 548, "response": "Beta"}, "71": {"stimulus": 5, "trial": 71, "rt": 404, "response": "Beta"}, "70": {"stimulus": 3, "trial": 70, "rt": 448, "response": "Beta"}, "59": {"stimulus": 22, "trial": 59, "rt": 837, "response": "Beta"}, "79": {"stimulus": 16, "trial": 79, "rt": 465, "response": "Beta"}, "58": {"stimulus": 56, "trial": 58, "rt": 678, "response": "Alpha"}, "11": {"stimulus": 63, "trial": 11, "rt": 724, "response": "Beta"}, "10": {"stimulus": 50, "trial": 10, "rt": 1067, "response": "Beta"}, "13": {"stimulus": 57, "trial": 13, "rt": 904, "response": "Beta"}, "12": {"stimulus": 26, "trial": 12, "rt": 696, "response": "Alpha"}, "15": {"stimulus": 77, "trial": 15, "rt": 899, "response": "Beta"}, "14": {"stimulus": 10, "trial": 14, "rt": 1156, "response": "Alpha"}, "17": {"stimulus": 53, "trial": 17, "rt": 847, "response": "Beta"}, "16": {"stimulus": 1, "trial": 16, "rt": 871, "response": "Alpha"}, "19": {"stimulus": 35, "trial": 19, "rt": 1410, "response": "Alpha"}, "18": {"stimulus": 74, "trial": 18, "rt": 671, "response": "Beta"}, "31": {"stimulus": 62, "trial": 31, "rt": 572, "response": "Beta"}, "30": {"stimulus": 78, "trial": 30, "rt": 821, "response": "Beta"}, "37": {"stimulus": 28, "trial": 37, "rt": 800, "response": "Beta"}, "36": {"stimulus": 40, "trial": 36, "rt": 574, "response": "Beta"}, "35": {"stimulus": 73, "trial": 35, "rt": 623, "response": "Beta"}, "34": {"stimulus": 45, "trial": 34, "rt": 1127, "response": "Beta"}, "33": {"stimulus": 64, "trial": 33, "rt": 1294, "response": "Beta"}, "55": {"stimulus": 51, "trial": 55, "rt": 729, "response": "Alpha"}, "74": {"stimulus": 36, "trial": 74, "rt": 662, "response": "Beta"}, "32": {"stimulus": 8, "trial": 32, "rt": 998, "response": "Alpha"}, "57": {"stimulus": 72, "trial": 57, "rt": 710, "response": "Alpha"}, "50": {"stimulus": 12, "trial": 50, "rt": 1040, "response": "Beta"}}}