{"generation": {"1": {"stimulus": 71, "trial": 1, "rt": 9779}, "0": {"stimulus": 65, "trial": 0, "rt": 15147}, "3": {"stimulus": 66, "trial": 3, "rt": 6280}, "2": {"stimulus": 63, "trial": 2, "rt": 7181}}, "info": {"participant": 192, "exposed": true, "lab": false, "start": 1488822832201, "counterbalance": 0, "condition": "Row", "browser": {"platform": "Win32", "userAgent": "Mozilla/5.0 (Windows NT 6.3; WOW64; rv:51.0) Gecko/20100101 Firefox/51.0"}}, "experiment": {"Paradigm": "TACL", "Stimuli": "Size-Color Squares", "Experiment": "Generating-Categories"}, "observation": {"11": {"stimulus": 16, "trial": 11, "rt": 1407}, "10": {"stimulus": 14, "trial": 10, "rt": 1213}, "1": {"stimulus": 16, "trial": 1, "rt": 2461}, "0": {"stimulus": 10, "trial": 0, "rt": 3730}, "3": {"stimulus": 14, "trial": 3, "rt": 2408}, "2": {"stimulus": 12, "trial": 2, "rt": 2315}, "5": {"stimulus": 16, "trial": 5, "rt": 1681}, "4": {"stimulus": 10, "trial": 4, "rt": 1204}, "7": {"stimulus": 12, "trial": 7, "rt": 1244}, "6": {"stimulus": 14, "trial": 6, "rt": 1673}, "9": {"stimulus": 10, "trial": 9, "rt": 1403}, "8": {"stimulus": 12, "trial": 8, "rt": 1346}}, "generalization": {"56": {"stimulus": 9, "trial": 56, "rt": 1625, "response": "Alpha"}, "77": {"stimulus": 59, "trial": 77, "rt": 1966, "response": "Beta"}, "54": {"stimulus": 15, "trial": 54, "rt": 727, "response": "Alpha"}, "42": {"stimulus": 25, "trial": 42, "rt": 1383, "response": "Alpha"}, "48": {"stimulus": 37, "trial": 48, "rt": 816, "response": "Beta"}, "43": {"stimulus": 24, "trial": 43, "rt": 1039, "response": "Alpha"}, "60": {"stimulus": 69, "trial": 60, "rt": 1749, "response": "Beta"}, "61": {"stimulus": 71, "trial": 61, "rt": 805, "response": "Beta"}, "62": {"stimulus": 68, "trial": 62, "rt": 709, "response": "Beta"}, "63": {"stimulus": 27, "trial": 63, "rt": 1231, "response": "Alpha"}, "64": {"stimulus": 54, "trial": 64, "rt": 1032, "response": "Beta"}, "49": {"stimulus": 63, "trial": 49, "rt": 933, "response": "Beta"}, "66": {"stimulus": 61, "trial": 66, "rt": 1178, "response": "Beta"}, "67": {"stimulus": 18, "trial": 67, "rt": 1117, "response": "Alpha"}, "68": {"stimulus": 70, "trial": 68, "rt": 1848, "response": "Beta"}, "69": {"stimulus": 41, "trial": 69, "rt": 1185, "response": "Beta"}, "80": {"stimulus": 40, "trial": 80, "rt": 1601, "response": "Beta"}, "52": {"stimulus": 29, "trial": 52, "rt": 662, "response": "Beta"}, "53": {"stimulus": 44, "trial": 53, "rt": 1578, "response": "Beta"}, "24": {"stimulus": 77, "trial": 24, "rt": 1086, "response": "Beta"}, "25": {"stimulus": 16, "trial": 25, "rt": 1220, "response": "Alpha"}, "26": {"stimulus": 14, "trial": 26, "rt": 756, "response": "Alpha"}, "27": {"stimulus": 31, "trial": 27, "rt": 1155, "response": "Alpha"}, "20": {"stimulus": 67, "trial": 20, "rt": 1901, "response": "Beta"}, "21": {"stimulus": 5, "trial": 21, "rt": 1915, "response": "Alpha"}, "22": {"stimulus": 2, "trial": 22, "rt": 728, "response": "Alpha"}, "23": {"stimulus": 62, "trial": 23, "rt": 1210, "response": "Beta"}, "46": {"stimulus": 80, "trial": 46, "rt": 1896, "response": "Beta"}, "47": {"stimulus": 64, "trial": 47, "rt": 892, "response": "Beta"}, "44": {"stimulus": 22, "trial": 44, "rt": 998, "response": "Alpha"}, "45": {"stimulus": 6, "trial": 45, "rt": 711, "response": "Alpha"}, "28": {"stimulus": 38, "trial": 28, "rt": 1235, "response": "Alpha"}, "29": {"stimulus": 21, "trial": 29, "rt": 1041, "response": "Alpha"}, "40": {"stimulus": 79, "trial": 40, "rt": 1143, "response": "Beta"}, "41": {"stimulus": 53, "trial": 41, "rt": 1968, "response": "Beta"}, "1": {"stimulus": 55, "trial": 1, "rt": 1237, "response": "Beta"}, "0": {"stimulus": 30, "trial": 0, "rt": 3312, "response": "Alpha"}, "3": {"stimulus": 17, "trial": 3, "rt": 1029, "response": "Alpha"}, "2": {"stimulus": 50, "trial": 2, "rt": 1466, "response": "Beta"}, "5": {"stimulus": 34, "trial": 5, "rt": 1435, "response": "Alpha"}, "4": {"stimulus": 48, "trial": 4, "rt": 1159, "response": "Beta"}, "7": {"stimulus": 75, "trial": 7, "rt": 1755, "response": "Beta"}, "6": {"stimulus": 42, "trial": 6, "rt": 3628, "response": "Beta"}, "9": {"stimulus": 7, "trial": 9, "rt": 1049, "response": "Alpha"}, "8": {"stimulus": 47, "trial": 8, "rt": 1457, "response": "Beta"}, "78": {"stimulus": 20, "trial": 78, "rt": 1493, "response": "Alpha"}, "51": {"stimulus": 76, "trial": 51, "rt": 811, "response": "Beta"}, "39": {"stimulus": 43, "trial": 39, "rt": 1740, "response": "Beta"}, "65": {"stimulus": 8, "trial": 65, "rt": 1059, "response": "Alpha"}, "76": {"stimulus": 72, "trial": 76, "rt": 1384, "response": "Beta"}, "75": {"stimulus": 33, "trial": 75, "rt": 1368, "response": "Alpha"}, "38": {"stimulus": 23, "trial": 38, "rt": 864, "response": "Alpha"}, "73": {"stimulus": 57, "trial": 73, "rt": 881, "response": "Beta"}, "72": {"stimulus": 73, "trial": 72, "rt": 1250, "response": "Beta"}, "71": {"stimulus": 3, "trial": 71, "rt": 1704, "response": "Alpha"}, "70": {"stimulus": 58, "trial": 70, "rt": 900, "response": "Beta"}, "59": {"stimulus": 0, "trial": 59, "rt": 615, "response": "Alpha"}, "79": {"stimulus": 51, "trial": 79, "rt": 1250, "response": "Beta"}, "58": {"stimulus": 32, "trial": 58, "rt": 663, "response": "Alpha"}, "11": {"stimulus": 65, "trial": 11, "rt": 1157, "response": "Beta"}, "10": {"stimulus": 13, "trial": 10, "rt": 769, "response": "Alpha"}, "13": {"stimulus": 60, "trial": 13, "rt": 825, "response": "Beta"}, "12": {"stimulus": 78, "trial": 12, "rt": 806, "response": "Beta"}, "15": {"stimulus": 74, "trial": 15, "rt": 1155, "response": "Beta"}, "14": {"stimulus": 39, "trial": 14, "rt": 2712, "response": "Alpha"}, "17": {"stimulus": 46, "trial": 17, "rt": 1267, "response": "Beta"}, "16": {"stimulus": 4, "trial": 16, "rt": 1243, "response": "Alpha"}, "19": {"stimulus": 52, "trial": 19, "rt": 1245, "response": "Beta"}, "18": {"stimulus": 35, "trial": 18, "rt": 1372, "response": "Alpha"}, "31": {"stimulus": 36, "trial": 31, "rt": 1955, "response": "Beta"}, "30": {"stimulus": 11, "trial": 30, "rt": 801, "response": "Alpha"}, "37": {"stimulus": 28, "trial": 37, "rt": 1169, "response": "Alpha"}, "36": {"stimulus": 1, "trial": 36, "rt": 793, "response": "Alpha"}, "35": {"stimulus": 26, "trial": 35, "rt": 1092, "response": "Alpha"}, "34": {"stimulus": 45, "trial": 34, "rt": 1256, "response": "Beta"}, "33": {"stimulus": 10, "trial": 33, "rt": 1292, "response": "Alpha"}, "55": {"stimulus": 66, "trial": 55, "rt": 1181, "response": "Beta"}, "74": {"stimulus": 19, "trial": 74, "rt": 1418, "response": "Alpha"}, "32": {"stimulus": 56, "trial": 32, "rt": 1275, "response": "Beta"}, "57": {"stimulus": 12, "trial": 57, "rt": 757, "response": "Alpha"}, "50": {"stimulus": 49, "trial": 50, "rt": 803, "response": "Beta"}}}