{"generation": {"1": {"stimulus": 7, "trial": 1, "rt": 6874}, "0": {"stimulus": 77, "trial": 0, "rt": 14130}, "3": {"stimulus": 72, "trial": 3, "rt": 4986}, "2": {"stimulus": 0, "trial": 2, "rt": 4714}}, "info": {"finish": 1488823053472, "participant": 193, "exposed": true, "lab": false, "start": 1488822838258, "counterbalance": 4, "condition": "Row", "browser": {"platform": "Win32", "userAgent": "Mozilla/5.0 (Windows NT 10.0; WOW64; rv:51.0) Gecko/20100101 Firefox/51.0"}}, "experiment": {"Paradigm": "TACL", "Stimuli": "Size-Color Squares", "Experiment": "Generating-Categories"}, "observation": {"11": {"stimulus": 16, "trial": 11, "rt": 1211}, "10": {"stimulus": 12, "trial": 10, "rt": 1139}, "1": {"stimulus": 16, "trial": 1, "rt": 2826}, "0": {"stimulus": 10, "trial": 0, "rt": 2588}, "3": {"stimulus": 14, "trial": 3, "rt": 1860}, "2": {"stimulus": 12, "trial": 2, "rt": 1723}, "5": {"stimulus": 12, "trial": 5, "rt": 1356}, "4": {"stimulus": 16, "trial": 4, "rt": 1571}, "7": {"stimulus": 14, "trial": 7, "rt": 1331}, "6": {"stimulus": 10, "trial": 6, "rt": 1531}, "9": {"stimulus": 14, "trial": 9, "rt": 1203}, "8": {"stimulus": 10, "trial": 8, "rt": 1131}}, "generalization": {"56": {"stimulus": 20, "trial": 56, "rt": 924, "response": "Alpha"}, "77": {"stimulus": 18, "trial": 77, "rt": 795, "response": "Alpha"}, "54": {"stimulus": 73, "trial": 54, "rt": 1140, "response": "Beta"}, "42": {"stimulus": 43, "trial": 42, "rt": 1195, "response": "Beta"}, "48": {"stimulus": 57, "trial": 48, "rt": 1522, "response": "Beta"}, "43": {"stimulus": 52, "trial": 43, "rt": 914, "response": "Alpha"}, "60": {"stimulus": 65, "trial": 60, "rt": 779, "response": "Beta"}, "61": {"stimulus": 36, "trial": 61, "rt": 1163, "response": "Beta"}, "62": {"stimulus": 66, "trial": 62, "rt": 835, "response": "Beta"}, "63": {"stimulus": 33, "trial": 63, "rt": 994, "response": "Alpha"}, "64": {"stimulus": 28, "trial": 64, "rt": 1067, "response": "Alpha"}, "49": {"stimulus": 54, "trial": 49, "rt": 723, "response": "Beta"}, "66": {"stimulus": 61, "trial": 66, "rt": 795, "response": "Beta"}, "67": {"stimulus": 78, "trial": 67, "rt": 899, "response": "Beta"}, "68": {"stimulus": 59, "trial": 68, "rt": 946, "response": "Beta"}, "69": {"stimulus": 70, "trial": 69, "rt": 611, "response": "Beta"}, "80": {"stimulus": 60, "trial": 80, "rt": 979, "response": "Beta"}, "52": {"stimulus": 50, "trial": 52, "rt": 1107, "response": "Beta"}, "53": {"stimulus": 14, "trial": 53, "rt": 787, "response": "Alpha"}, "24": {"stimulus": 37, "trial": 24, "rt": 1075, "response": "Beta"}, "25": {"stimulus": 22, "trial": 25, "rt": 1114, "response": "Alpha"}, "26": {"stimulus": 45, "trial": 26, "rt": 979, "response": "Beta"}, "27": {"stimulus": 24, "trial": 27, "rt": 818, "response": "Alpha"}, "20": {"stimulus": 74, "trial": 20, "rt": 834, "response": "Beta"}, "21": {"stimulus": 11, "trial": 21, "rt": 945, "response": "Alpha"}, "22": {"stimulus": 15, "trial": 22, "rt": 795, "response": "Alpha"}, "23": {"stimulus": 5, "trial": 23, "rt": 667, "response": "Alpha"}, "46": {"stimulus": 2, "trial": 46, "rt": 1092, "response": "Beta"}, "47": {"stimulus": 17, "trial": 47, "rt": 2164, "response": "Beta"}, "44": {"stimulus": 39, "trial": 44, "rt": 1100, "response": "Alpha"}, "45": {"stimulus": 19, "trial": 45, "rt": 994, "response": "Alpha"}, "28": {"stimulus": 26, "trial": 28, "rt": 724, "response": "Alpha"}, "29": {"stimulus": 25, "trial": 29, "rt": 595, "response": "Alpha"}, "40": {"stimulus": 76, "trial": 40, "rt": 946, "response": "Beta"}, "41": {"stimulus": 23, "trial": 41, "rt": 868, "response": "Alpha"}, "1": {"stimulus": 69, "trial": 1, "rt": 1333, "response": "Alpha"}, "0": {"stimulus": 51, "trial": 0, "rt": 1914, "response": "Alpha"}, "3": {"stimulus": 0, "trial": 3, "rt": 4770, "response": "Alpha"}, "2": {"stimulus": 47, "trial": 2, "rt": 1105, "response": "Alpha"}, "5": {"stimulus": 63, "trial": 5, "rt": 967, "response": "Beta"}, "4": {"stimulus": 1, "trial": 4, "rt": 1163, "response": "Alpha"}, "7": {"stimulus": 4, "trial": 7, "rt": 979, "response": "Alpha"}, "6": {"stimulus": 79, "trial": 6, "rt": 743, "response": "Beta"}, "9": {"stimulus": 29, "trial": 9, "rt": 2090, "response": "Beta"}, "8": {"stimulus": 75, "trial": 8, "rt": 1019, "response": "Beta"}, "78": {"stimulus": 80, "trial": 78, "rt": 795, "response": "Beta"}, "51": {"stimulus": 31, "trial": 51, "rt": 859, "response": "Alpha"}, "39": {"stimulus": 62, "trial": 39, "rt": 994, "response": "Beta"}, "65": {"stimulus": 10, "trial": 65, "rt": 699, "response": "Alpha"}, "76": {"stimulus": 41, "trial": 76, "rt": 626, "response": "Alpha"}, "75": {"stimulus": 38, "trial": 75, "rt": 1083, "response": "Alpha"}, "38": {"stimulus": 42, "trial": 38, "rt": 2547, "response": "Beta"}, "73": {"stimulus": 44, "trial": 73, "rt": 874, "response": "Alpha"}, "72": {"stimulus": 30, "trial": 72, "rt": 931, "response": "Alpha"}, "71": {"stimulus": 8, "trial": 71, "rt": 1364, "response": "Beta"}, "70": {"stimulus": 56, "trial": 70, "rt": 659, "response": "Beta"}, "59": {"stimulus": 40, "trial": 59, "rt": 683, "response": "Alpha"}, "79": {"stimulus": 7, "trial": 79, "rt": 1242, "response": "Beta"}, "58": {"stimulus": 32, "trial": 58, "rt": 994, "response": "Alpha"}, "11": {"stimulus": 34, "trial": 11, "rt": 1274, "response": "Alpha"}, "10": {"stimulus": 13, "trial": 10, "rt": 1306, "response": "Alpha"}, "13": {"stimulus": 68, "trial": 13, "rt": 1499, "response": "Beta"}, "12": {"stimulus": 58, "trial": 12, "rt": 915, "response": "Beta"}, "15": {"stimulus": 21, "trial": 15, "rt": 771, "response": "Alpha"}, "14": {"stimulus": 9, "trial": 14, "rt": 1067, "response": "Alpha"}, "17": {"stimulus": 12, "trial": 17, "rt": 1730, "response": "Alpha"}, "16": {"stimulus": 48, "trial": 16, "rt": 1579, "response": "Beta"}, "19": {"stimulus": 16, "trial": 19, "rt": 1514, "response": "Alpha"}, "18": {"stimulus": 64, "trial": 18, "rt": 1259, "response": "Beta"}, "31": {"stimulus": 46, "trial": 31, "rt": 1505, "response": "Beta"}, "30": {"stimulus": 77, "trial": 30, "rt": 820, "response": "Beta"}, "37": {"stimulus": 53, "trial": 37, "rt": 932, "response": "Beta"}, "36": {"stimulus": 27, "trial": 36, "rt": 876, "response": "Alpha"}, "35": {"stimulus": 49, "trial": 35, "rt": 884, "response": "Beta"}, "34": {"stimulus": 55, "trial": 34, "rt": 1146, "response": "Beta"}, "33": {"stimulus": 71, "trial": 33, "rt": 834, "response": "Beta"}, "55": {"stimulus": 3, "trial": 55, "rt": 1076, "response": "Beta"}, "74": {"stimulus": 35, "trial": 74, "rt": 667, "response": "Alpha"}, "32": {"stimulus": 72, "trial": 32, "rt": 971, "response": "Beta"}, "57": {"stimulus": 67, "trial": 57, "rt": 1123, "response": "Beta"}, "50": {"stimulus": 6, "trial": 50, "rt": 1323, "response": "Beta"}}}