{"generation": {"1": {"stimulus": 80, "trial": 1, "rt": 6877}, "0": {"stimulus": 29, "trial": 0, "rt": 10677}, "3": {"stimulus": 73, "trial": 3, "rt": 3834}, "2": {"stimulus": 78, "trial": 2, "rt": 3818}}, "info": {"finish": 1488823226412, "participant": 195, "exposed": true, "lab": false, "start": 1488822895739, "counterbalance": 5, "condition": "Row", "browser": {"platform": "Win32", "userAgent": "Mozilla/5.0 (Windows NT 6.3; WOW64; rv:51.0) Gecko/20100101 Firefox/51.0"}}, "experiment": {"Paradigm": "TACL", "Stimuli": "Size-Color Squares", "Experiment": "Generating-Categories"}, "observation": {"11": {"stimulus": 12, "trial": 11, "rt": 3027}, "10": {"stimulus": 14, "trial": 10, "rt": 3195}, "1": {"stimulus": 16, "trial": 1, "rt": 1624}, "0": {"stimulus": 14, "trial": 0, "rt": 2748}, "3": {"stimulus": 10, "trial": 3, "rt": 2938}, "2": {"stimulus": 12, "trial": 2, "rt": 1554}, "5": {"stimulus": 10, "trial": 5, "rt": 4866}, "4": {"stimulus": 12, "trial": 4, "rt": 2291}, "7": {"stimulus": 16, "trial": 7, "rt": 2297}, "6": {"stimulus": 14, "trial": 6, "rt": 3465}, "9": {"stimulus": 10, "trial": 9, "rt": 5414}, "8": {"stimulus": 16, "trial": 8, "rt": 2826}}, "generalization": {"56": {"stimulus": 58, "trial": 56, "rt": 630, "response": "Beta"}, "77": {"stimulus": 62, "trial": 77, "rt": 998, "response": "Beta"}, "54": {"stimulus": 69, "trial": 54, "rt": 532, "response": "Beta"}, "42": {"stimulus": 12, "trial": 42, "rt": 1296, "response": "Alpha"}, "48": {"stimulus": 57, "trial": 48, "rt": 926, "response": "Beta"}, "43": {"stimulus": 60, "trial": 43, "rt": 1376, "response": "Beta"}, "60": {"stimulus": 33, "trial": 60, "rt": 596, "response": "Beta"}, "61": {"stimulus": 7, "trial": 61, "rt": 782, "response": "Alpha"}, "62": {"stimulus": 26, "trial": 62, "rt": 786, "response": "Beta"}, "63": {"stimulus": 73, "trial": 63, "rt": 614, "response": "Beta"}, "64": {"stimulus": 45, "trial": 64, "rt": 643, "response": "Beta"}, "49": {"stimulus": 21, "trial": 49, "rt": 667, "response": "Alpha"}, "66": {"stimulus": 72, "trial": 66, "rt": 646, "response": "Beta"}, "67": {"stimulus": 24, "trial": 67, "rt": 538, "response": "Beta"}, "68": {"stimulus": 29, "trial": 68, "rt": 637, "response": "Beta"}, "69": {"stimulus": 63, "trial": 69, "rt": 697, "response": "Beta"}, "80": {"stimulus": 76, "trial": 80, "rt": 516, "response": "Beta"}, "52": {"stimulus": 49, "trial": 52, "rt": 610, "response": "Beta"}, "53": {"stimulus": 65, "trial": 53, "rt": 526, "response": "Beta"}, "24": {"stimulus": 70, "trial": 24, "rt": 788, "response": "Beta"}, "25": {"stimulus": 46, "trial": 25, "rt": 932, "response": "Beta"}, "26": {"stimulus": 80, "trial": 26, "rt": 804, "response": "Beta"}, "27": {"stimulus": 31, "trial": 27, "rt": 1061, "response": "Beta"}, "20": {"stimulus": 64, "trial": 20, "rt": 1201, "response": "Beta"}, "21": {"stimulus": 22, "trial": 21, "rt": 1439, "response": "Beta"}, "22": {"stimulus": 47, "trial": 22, "rt": 746, "response": "Beta"}, "23": {"stimulus": 55, "trial": 23, "rt": 805, "response": "Beta"}, "46": {"stimulus": 66, "trial": 46, "rt": 721, "response": "Beta"}, "47": {"stimulus": 16, "trial": 47, "rt": 1204, "response": "Alpha"}, "44": {"stimulus": 38, "trial": 44, "rt": 1102, "response": "Beta"}, "45": {"stimulus": 78, "trial": 45, "rt": 1192, "response": "Beta"}, "28": {"stimulus": 51, "trial": 28, "rt": 1330, "response": "Beta"}, "29": {"stimulus": 37, "trial": 29, "rt": 3203, "response": "Beta"}, "40": {"stimulus": 59, "trial": 40, "rt": 1316, "response": "Beta"}, "41": {"stimulus": 75, "trial": 41, "rt": 1566, "response": "Beta"}, "1": {"stimulus": 25, "trial": 1, "rt": 1391, "response": "Alpha"}, "0": {"stimulus": 71, "trial": 0, "rt": 2098, "response": "Beta"}, "3": {"stimulus": 20, "trial": 3, "rt": 1086, "response": "Alpha"}, "2": {"stimulus": 9, "trial": 2, "rt": 2339, "response": "Alpha"}, "5": {"stimulus": 36, "trial": 5, "rt": 1824, "response": "Beta"}, "4": {"stimulus": 56, "trial": 4, "rt": 1672, "response": "Beta"}, "7": {"stimulus": 3, "trial": 7, "rt": 1075, "response": "Alpha"}, "6": {"stimulus": 30, "trial": 6, "rt": 1121, "response": "Beta"}, "9": {"stimulus": 14, "trial": 9, "rt": 1321, "response": "Alpha"}, "8": {"stimulus": 42, "trial": 8, "rt": 1343, "response": "Beta"}, "78": {"stimulus": 68, "trial": 78, "rt": 739, "response": "Beta"}, "51": {"stimulus": 39, "trial": 51, "rt": 626, "response": "Beta"}, "39": {"stimulus": 19, "trial": 39, "rt": 1270, "response": "Alpha"}, "65": {"stimulus": 15, "trial": 65, "rt": 901, "response": "Alpha"}, "76": {"stimulus": 1, "trial": 76, "rt": 1412, "response": "Alpha"}, "75": {"stimulus": 23, "trial": 75, "rt": 809, "response": "Beta"}, "38": {"stimulus": 61, "trial": 38, "rt": 1249, "response": "Beta"}, "73": {"stimulus": 35, "trial": 73, "rt": 819, "response": "Beta"}, "72": {"stimulus": 53, "trial": 72, "rt": 731, "response": "Beta"}, "71": {"stimulus": 6, "trial": 71, "rt": 687, "response": "Alpha"}, "70": {"stimulus": 5, "trial": 70, "rt": 751, "response": "Alpha"}, "59": {"stimulus": 79, "trial": 59, "rt": 668, "response": "Beta"}, "79": {"stimulus": 77, "trial": 79, "rt": 511, "response": "Beta"}, "58": {"stimulus": 13, "trial": 58, "rt": 762, "response": "Alpha"}, "11": {"stimulus": 34, "trial": 11, "rt": 1829, "response": "Beta"}, "10": {"stimulus": 0, "trial": 10, "rt": 831, "response": "Alpha"}, "13": {"stimulus": 18, "trial": 13, "rt": 895, "response": "Beta"}, "12": {"stimulus": 28, "trial": 12, "rt": 836, "response": "Beta"}, "15": {"stimulus": 8, "trial": 15, "rt": 1287, "response": "Alpha"}, "14": {"stimulus": 74, "trial": 14, "rt": 837, "response": "Beta"}, "17": {"stimulus": 32, "trial": 17, "rt": 702, "response": "Beta"}, "16": {"stimulus": 41, "trial": 16, "rt": 1594, "response": "Beta"}, "19": {"stimulus": 10, "trial": 19, "rt": 1904, "response": "Alpha"}, "18": {"stimulus": 40, "trial": 18, "rt": 835, "response": "Beta"}, "31": {"stimulus": 2, "trial": 31, "rt": 1178, "response": "Alpha"}, "30": {"stimulus": 67, "trial": 30, "rt": 743, "response": "Beta"}, "37": {"stimulus": 50, "trial": 37, "rt": 1745, "response": "Beta"}, "36": {"stimulus": 54, "trial": 36, "rt": 1336, "response": "Beta"}, "35": {"stimulus": 48, "trial": 35, "rt": 1404, "response": "Beta"}, "34": {"stimulus": 52, "trial": 34, "rt": 951, "response": "Beta"}, "33": {"stimulus": 27, "trial": 33, "rt": 752, "response": "Alpha"}, "55": {"stimulus": 4, "trial": 55, "rt": 717, "response": "Alpha"}, "74": {"stimulus": 44, "trial": 74, "rt": 577, "response": "Beta"}, "32": {"stimulus": 11, "trial": 32, "rt": 770, "response": "Alpha"}, "57": {"stimulus": 43, "trial": 57, "rt": 550, "response": "Beta"}, "50": {"stimulus": 17, "trial": 50, "rt": 823, "response": "Alpha"}}}