{"generation": {"1": {"stimulus": 72, "trial": 1, "rt": 6433}, "0": {"stimulus": 77, "trial": 0, "rt": 15426}, "3": {"stimulus": 79, "trial": 3, "rt": 7626}, "2": {"stimulus": 80, "trial": 2, "rt": 4802}}, "info": {"finish": 1488823136750, "participant": 196, "exposed": true, "lab": false, "start": 1488822889913, "counterbalance": 6, "condition": "Row", "browser": {"platform": "Win32", "userAgent": "Mozilla/5.0 (Windows NT 10.0; WOW64; rv:51.0) Gecko/20100101 Firefox/51.0"}}, "experiment": {"Paradigm": "TACL", "Stimuli": "Size-Color Squares", "Experiment": "Generating-Categories"}, "observation": {"11": {"stimulus": 10, "trial": 11, "rt": 2042}, "10": {"stimulus": 16, "trial": 10, "rt": 1826}, "1": {"stimulus": 10, "trial": 1, "rt": 2955}, "0": {"stimulus": 12, "trial": 0, "rt": 4455}, "3": {"stimulus": 14, "trial": 3, "rt": 1723}, "2": {"stimulus": 16, "trial": 2, "rt": 2098}, "5": {"stimulus": 12, "trial": 5, "rt": 1737}, "4": {"stimulus": 16, "trial": 4, "rt": 2275}, "7": {"stimulus": 10, "trial": 7, "rt": 2042}, "6": {"stimulus": 14, "trial": 6, "rt": 1963}, "9": {"stimulus": 14, "trial": 9, "rt": 1907}, "8": {"stimulus": 12, "trial": 8, "rt": 2210}}, "generalization": {"56": {"stimulus": 21, "trial": 56, "rt": 977, "response": "Alpha"}, "77": {"stimulus": 54, "trial": 77, "rt": 923, "response": "Beta"}, "54": {"stimulus": 28, "trial": 54, "rt": 1086, "response": "Beta"}, "42": {"stimulus": 8, "trial": 42, "rt": 1042, "response": "Alpha"}, "48": {"stimulus": 5, "trial": 48, "rt": 899, "response": "Alpha"}, "43": {"stimulus": 58, "trial": 43, "rt": 1947, "response": "Beta"}, "60": {"stimulus": 59, "trial": 60, "rt": 1362, "response": "Beta"}, "61": {"stimulus": 67, "trial": 61, "rt": 898, "response": "Beta"}, "62": {"stimulus": 80, "trial": 62, "rt": 1026, "response": "Beta"}, "63": {"stimulus": 12, "trial": 63, "rt": 1186, "response": "Alpha"}, "64": {"stimulus": 51, "trial": 64, "rt": 2722, "response": "Alpha"}, "49": {"stimulus": 56, "trial": 49, "rt": 994, "response": "Beta"}, "66": {"stimulus": 26, "trial": 66, "rt": 1123, "response": "Alpha"}, "67": {"stimulus": 18, "trial": 67, "rt": 938, "response": "Alpha"}, "68": {"stimulus": 0, "trial": 68, "rt": 818, "response": "Alpha"}, "69": {"stimulus": 25, "trial": 69, "rt": 1002, "response": "Alpha"}, "80": {"stimulus": 38, "trial": 80, "rt": 1106, "response": "Alpha"}, "52": {"stimulus": 46, "trial": 52, "rt": 1986, "response": "Beta"}, "53": {"stimulus": 36, "trial": 53, "rt": 1098, "response": "Beta"}, "24": {"stimulus": 49, "trial": 24, "rt": 1803, "response": "Alpha"}, "25": {"stimulus": 9, "trial": 25, "rt": 959, "response": "Alpha"}, "26": {"stimulus": 7, "trial": 26, "rt": 976, "response": "Alpha"}, "27": {"stimulus": 42, "trial": 27, "rt": 1338, "response": "Alpha"}, "20": {"stimulus": 31, "trial": 20, "rt": 1164, "response": "Alpha"}, "21": {"stimulus": 63, "trial": 21, "rt": 1586, "response": "Beta"}, "22": {"stimulus": 39, "trial": 22, "rt": 1371, "response": "Alpha"}, "23": {"stimulus": 79, "trial": 23, "rt": 1122, "response": "Beta"}, "46": {"stimulus": 10, "trial": 46, "rt": 906, "response": "Alpha"}, "47": {"stimulus": 77, "trial": 47, "rt": 1010, "response": "Beta"}, "44": {"stimulus": 61, "trial": 44, "rt": 819, "response": "Beta"}, "45": {"stimulus": 60, "trial": 45, "rt": 947, "response": "Beta"}, "28": {"stimulus": 52, "trial": 28, "rt": 1082, "response": "Alpha"}, "29": {"stimulus": 62, "trial": 29, "rt": 1330, "response": "Alpha"}, "40": {"stimulus": 76, "trial": 40, "rt": 1090, "response": "Beta"}, "41": {"stimulus": 53, "trial": 41, "rt": 1074, "response": "Beta"}, "1": {"stimulus": 24, "trial": 1, "rt": 938, "response": "Alpha"}, "0": {"stimulus": 4, "trial": 0, "rt": 1297, "response": "Alpha"}, "3": {"stimulus": 72, "trial": 3, "rt": 1002, "response": "Beta"}, "2": {"stimulus": 50, "trial": 2, "rt": 1161, "response": "Beta"}, "5": {"stimulus": 41, "trial": 5, "rt": 1043, "response": "Alpha"}, "4": {"stimulus": 44, "trial": 4, "rt": 1106, "response": "Alpha"}, "7": {"stimulus": 70, "trial": 7, "rt": 1338, "response": "Beta"}, "6": {"stimulus": 47, "trial": 6, "rt": 1714, "response": "Alpha"}, "9": {"stimulus": 74, "trial": 9, "rt": 1315, "response": "Beta"}, "8": {"stimulus": 13, "trial": 8, "rt": 1122, "response": "Alpha"}, "78": {"stimulus": 65, "trial": 78, "rt": 811, "response": "Beta"}, "51": {"stimulus": 27, "trial": 51, "rt": 1794, "response": "Alpha"}, "39": {"stimulus": 37, "trial": 39, "rt": 1235, "response": "Alpha"}, "65": {"stimulus": 69, "trial": 65, "rt": 1018, "response": "Beta"}, "76": {"stimulus": 71, "trial": 76, "rt": 1227, "response": "Beta"}, "75": {"stimulus": 34, "trial": 75, "rt": 1123, "response": "Alpha"}, "38": {"stimulus": 22, "trial": 38, "rt": 1459, "response": "Alpha"}, "73": {"stimulus": 66, "trial": 73, "rt": 874, "response": "Beta"}, "72": {"stimulus": 64, "trial": 72, "rt": 971, "response": "Beta"}, "71": {"stimulus": 32, "trial": 71, "rt": 1082, "response": "Alpha"}, "70": {"stimulus": 48, "trial": 70, "rt": 2043, "response": "Alpha"}, "59": {"stimulus": 1, "trial": 59, "rt": 1203, "response": "Alpha"}, "79": {"stimulus": 3, "trial": 79, "rt": 986, "response": "Alpha"}, "58": {"stimulus": 23, "trial": 58, "rt": 1137, "response": "Alpha"}, "11": {"stimulus": 33, "trial": 11, "rt": 1290, "response": "Alpha"}, "10": {"stimulus": 15, "trial": 10, "rt": 987, "response": "Alpha"}, "13": {"stimulus": 55, "trial": 13, "rt": 3714, "response": "Beta"}, "12": {"stimulus": 20, "trial": 12, "rt": 1315, "response": "Alpha"}, "15": {"stimulus": 40, "trial": 15, "rt": 1779, "response": "Alpha"}, "14": {"stimulus": 2, "trial": 14, "rt": 1019, "response": "Alpha"}, "17": {"stimulus": 14, "trial": 17, "rt": 1123, "response": "Alpha"}, "16": {"stimulus": 45, "trial": 16, "rt": 962, "response": "Alpha"}, "19": {"stimulus": 75, "trial": 19, "rt": 1336, "response": "Beta"}, "18": {"stimulus": 30, "trial": 18, "rt": 1218, "response": "Alpha"}, "31": {"stimulus": 35, "trial": 31, "rt": 1386, "response": "Alpha"}, "30": {"stimulus": 16, "trial": 30, "rt": 1251, "response": "Alpha"}, "37": {"stimulus": 43, "trial": 37, "rt": 1867, "response": "Alpha"}, "36": {"stimulus": 6, "trial": 36, "rt": 979, "response": "Alpha"}, "35": {"stimulus": 57, "trial": 35, "rt": 2402, "response": "Beta"}, "34": {"stimulus": 73, "trial": 34, "rt": 1354, "response": "Beta"}, "33": {"stimulus": 29, "trial": 33, "rt": 1283, "response": "Alpha"}, "55": {"stimulus": 19, "trial": 55, "rt": 914, "response": "Alpha"}, "74": {"stimulus": 68, "trial": 74, "rt": 1195, "response": "Beta"}, "32": {"stimulus": 17, "trial": 32, "rt": 1362, "response": "Alpha"}, "57": {"stimulus": 11, "trial": 57, "rt": 923, "response": "Alpha"}, "50": {"stimulus": 78, "trial": 50, "rt": 844, "response": "Beta"}}}