{"generation": {"1": {"stimulus": 80, "trial": 1, "rt": 8161}, "0": {"stimulus": 72, "trial": 0, "rt": 11568}, "3": {"stimulus": 74, "trial": 3, "rt": 6706}, "2": {"stimulus": 78, "trial": 2, "rt": 6285}}, "info": {"finish": 1488823152797, "participant": 197, "exposed": true, "lab": false, "start": 1488822895548, "counterbalance": 2, "condition": "Row", "browser": {"platform": "Win32", "userAgent": "Mozilla/5.0 (Windows NT 10.0; Win64; x64) AppleWebKit/537.36 (KHTML, like Gecko) Chrome/51.0.2704.79 Safari/537.36 Edge/14.14393"}}, "experiment": {"Paradigm": "TACL", "Stimuli": "Size-Color Squares", "Experiment": "Generating-Categories"}, "observation": {"11": {"stimulus": 12, "trial": 11, "rt": 1794}, "10": {"stimulus": 14, "trial": 10, "rt": 1441}, "1": {"stimulus": 10, "trial": 1, "rt": 2088}, "0": {"stimulus": 12, "trial": 0, "rt": 7169}, "3": {"stimulus": 16, "trial": 3, "rt": 1873}, "2": {"stimulus": 14, "trial": 2, "rt": 1748}, "5": {"stimulus": 14, "trial": 5, "rt": 1572}, "4": {"stimulus": 12, "trial": 4, "rt": 1612}, "7": {"stimulus": 16, "trial": 7, "rt": 1458}, "6": {"stimulus": 10, "trial": 6, "rt": 1644}, "9": {"stimulus": 16, "trial": 9, "rt": 1535}, "8": {"stimulus": 10, "trial": 8, "rt": 1661}}, "generalization": {"56": {"stimulus": 42, "trial": 56, "rt": 1830, "response": "Beta"}, "77": {"stimulus": 11, "trial": 77, "rt": 768, "response": "Alpha"}, "54": {"stimulus": 48, "trial": 54, "rt": 1624, "response": "Beta"}, "42": {"stimulus": 29, "trial": 42, "rt": 790, "response": "Beta"}, "48": {"stimulus": 71, "trial": 48, "rt": 735, "response": "Beta"}, "43": {"stimulus": 45, "trial": 43, "rt": 798, "response": "Beta"}, "60": {"stimulus": 63, "trial": 60, "rt": 1612, "response": "Beta"}, "61": {"stimulus": 74, "trial": 61, "rt": 705, "response": "Beta"}, "62": {"stimulus": 5, "trial": 62, "rt": 1507, "response": "Alpha"}, "63": {"stimulus": 36, "trial": 63, "rt": 1521, "response": "Beta"}, "64": {"stimulus": 47, "trial": 64, "rt": 748, "response": "Beta"}, "49": {"stimulus": 72, "trial": 49, "rt": 787, "response": "Beta"}, "66": {"stimulus": 54, "trial": 66, "rt": 756, "response": "Beta"}, "67": {"stimulus": 59, "trial": 67, "rt": 802, "response": "Beta"}, "68": {"stimulus": 23, "trial": 68, "rt": 1420, "response": "Beta"}, "69": {"stimulus": 56, "trial": 69, "rt": 787, "response": "Beta"}, "80": {"stimulus": 13, "trial": 80, "rt": 1767, "response": "Alpha"}, "52": {"stimulus": 53, "trial": 52, "rt": 829, "response": "Beta"}, "53": {"stimulus": 16, "trial": 53, "rt": 1906, "response": "Alpha"}, "24": {"stimulus": 17, "trial": 24, "rt": 638, "response": "Alpha"}, "25": {"stimulus": 20, "trial": 25, "rt": 602, "response": "Alpha"}, "26": {"stimulus": 22, "trial": 26, "rt": 649, "response": "Alpha"}, "27": {"stimulus": 60, "trial": 27, "rt": 1613, "response": "Beta"}, "20": {"stimulus": 10, "trial": 20, "rt": 569, "response": "Alpha"}, "21": {"stimulus": 25, "trial": 21, "rt": 592, "response": "Alpha"}, "22": {"stimulus": 2, "trial": 22, "rt": 666, "response": "Alpha"}, "23": {"stimulus": 14, "trial": 23, "rt": 565, "response": "Alpha"}, "46": {"stimulus": 73, "trial": 46, "rt": 1195, "response": "Beta"}, "47": {"stimulus": 38, "trial": 47, "rt": 768, "response": "Beta"}, "44": {"stimulus": 40, "trial": 44, "rt": 689, "response": "Beta"}, "45": {"stimulus": 27, "trial": 45, "rt": 831, "response": "Beta"}, "28": {"stimulus": 68, "trial": 28, "rt": 717, "response": "Beta"}, "29": {"stimulus": 58, "trial": 29, "rt": 645, "response": "Beta"}, "40": {"stimulus": 70, "trial": 40, "rt": 681, "response": "Beta"}, "41": {"stimulus": 46, "trial": 41, "rt": 707, "response": "Beta"}, "1": {"stimulus": 75, "trial": 1, "rt": 1651, "response": "Beta"}, "0": {"stimulus": 6, "trial": 0, "rt": 2708, "response": "Alpha"}, "3": {"stimulus": 37, "trial": 3, "rt": 3185, "response": "Alpha"}, "2": {"stimulus": 62, "trial": 2, "rt": 2616, "response": "Beta"}, "5": {"stimulus": 77, "trial": 5, "rt": 1481, "response": "Beta"}, "4": {"stimulus": 52, "trial": 4, "rt": 1654, "response": "Alpha"}, "7": {"stimulus": 50, "trial": 7, "rt": 1732, "response": "Beta"}, "6": {"stimulus": 39, "trial": 6, "rt": 1994, "response": "Alpha"}, "9": {"stimulus": 41, "trial": 9, "rt": 1158, "response": "Alpha"}, "8": {"stimulus": 33, "trial": 8, "rt": 2553, "response": "Alpha"}, "78": {"stimulus": 30, "trial": 78, "rt": 1972, "response": "Beta"}, "51": {"stimulus": 32, "trial": 51, "rt": 987, "response": "Beta"}, "39": {"stimulus": 79, "trial": 39, "rt": 782, "response": "Beta"}, "65": {"stimulus": 55, "trial": 65, "rt": 914, "response": "Beta"}, "76": {"stimulus": 12, "trial": 76, "rt": 1931, "response": "Alpha"}, "75": {"stimulus": 35, "trial": 75, "rt": 868, "response": "Beta"}, "38": {"stimulus": 76, "trial": 38, "rt": 1457, "response": "Beta"}, "73": {"stimulus": 0, "trial": 73, "rt": 2212, "response": "Alpha"}, "72": {"stimulus": 65, "trial": 72, "rt": 722, "response": "Beta"}, "71": {"stimulus": 51, "trial": 71, "rt": 1686, "response": "Beta"}, "70": {"stimulus": 9, "trial": 70, "rt": 1746, "response": "Alpha"}, "59": {"stimulus": 7, "trial": 59, "rt": 1177, "response": "Alpha"}, "79": {"stimulus": 28, "trial": 79, "rt": 809, "response": "Beta"}, "58": {"stimulus": 26, "trial": 58, "rt": 1443, "response": "Beta"}, "11": {"stimulus": 80, "trial": 11, "rt": 2067, "response": "Beta"}, "10": {"stimulus": 8, "trial": 10, "rt": 1054, "response": "Alpha"}, "13": {"stimulus": 44, "trial": 13, "rt": 1438, "response": "Beta"}, "12": {"stimulus": 1, "trial": 12, "rt": 1527, "response": "Alpha"}, "15": {"stimulus": 57, "trial": 15, "rt": 1299, "response": "Beta"}, "14": {"stimulus": 24, "trial": 14, "rt": 1547, "response": "Alpha"}, "17": {"stimulus": 21, "trial": 17, "rt": 1575, "response": "Alpha"}, "16": {"stimulus": 66, "trial": 16, "rt": 957, "response": "Beta"}, "19": {"stimulus": 15, "trial": 19, "rt": 742, "response": "Alpha"}, "18": {"stimulus": 31, "trial": 18, "rt": 1109, "response": "Alpha"}, "31": {"stimulus": 49, "trial": 31, "rt": 678, "response": "Beta"}, "30": {"stimulus": 64, "trial": 30, "rt": 669, "response": "Beta"}, "37": {"stimulus": 19, "trial": 37, "rt": 949, "response": "Alpha"}, "36": {"stimulus": 18, "trial": 36, "rt": 2615, "response": "Alpha"}, "35": {"stimulus": 69, "trial": 35, "rt": 1088, "response": "Beta"}, "34": {"stimulus": 61, "trial": 34, "rt": 1500, "response": "Beta"}, "33": {"stimulus": 4, "trial": 33, "rt": 1642, "response": "Alpha"}, "55": {"stimulus": 3, "trial": 55, "rt": 1798, "response": "Alpha"}, "74": {"stimulus": 43, "trial": 74, "rt": 1353, "response": "Beta"}, "32": {"stimulus": 34, "trial": 32, "rt": 770, "response": "Beta"}, "57": {"stimulus": 67, "trial": 57, "rt": 882, "response": "Beta"}, "50": {"stimulus": 78, "trial": 50, "rt": 721, "response": "Beta"}}}