{"generation": {"1": {"stimulus": 72, "trial": 1, "rt": 4446}, "0": {"stimulus": 78, "trial": 0, "rt": 12571}, "3": {"stimulus": 64, "trial": 3, "rt": 7065}, "2": {"stimulus": 67, "trial": 2, "rt": 7116}}, "info": {"finish": 1488823193500, "participant": 198, "exposed": true, "lab": false, "start": 1488822897347, "counterbalance": 2, "condition": "Cluster", "browser": {"platform": "Win32", "userAgent": "Mozilla/5.0 (Windows NT 10.0; WOW64) AppleWebKit/537.36 (KHTML, like Gecko) Chrome/56.0.2924.87 Safari/537.36"}}, "experiment": {"Paradigm": "TACL", "Stimuli": "Size-Color Squares", "Experiment": "Generating-Categories"}, "observation": {"11": {"stimulus": 34, "trial": 11, "rt": 1037}, "10": {"stimulus": 32, "trial": 10, "rt": 1115}, "1": {"stimulus": 14, "trial": 1, "rt": 1713}, "0": {"stimulus": 16, "trial": 0, "rt": 2546}, "3": {"stimulus": 34, "trial": 3, "rt": 1420}, "2": {"stimulus": 32, "trial": 2, "rt": 1506}, "5": {"stimulus": 34, "trial": 5, "rt": 2262}, "4": {"stimulus": 32, "trial": 4, "rt": 1671}, "7": {"stimulus": 16, "trial": 7, "rt": 1055}, "6": {"stimulus": 14, "trial": 6, "rt": 1211}, "9": {"stimulus": 14, "trial": 9, "rt": 1225}, "8": {"stimulus": 16, "trial": 8, "rt": 1149}}, "generalization": {"56": {"stimulus": 3, "trial": 56, "rt": 648, "response": "Alpha"}, "77": {"stimulus": 1, "trial": 77, "rt": 636, "response": "Alpha"}, "54": {"stimulus": 5, "trial": 54, "rt": 636, "response": "Alpha"}, "42": {"stimulus": 70, "trial": 42, "rt": 1171, "response": "Beta"}, "48": {"stimulus": 44, "trial": 48, "rt": 728, "response": "Alpha"}, "43": {"stimulus": 0, "trial": 43, "rt": 884, "response": "Alpha"}, "60": {"stimulus": 43, "trial": 60, "rt": 725, "response": "Alpha"}, "61": {"stimulus": 60, "trial": 61, "rt": 798, "response": "Beta"}, "62": {"stimulus": 17, "trial": 62, "rt": 602, "response": "Alpha"}, "63": {"stimulus": 24, "trial": 63, "rt": 584, "response": "Alpha"}, "64": {"stimulus": 53, "trial": 64, "rt": 926, "response": "Alpha"}, "49": {"stimulus": 2, "trial": 49, "rt": 643, "response": "Alpha"}, "66": {"stimulus": 30, "trial": 66, "rt": 628, "response": "Alpha"}, "67": {"stimulus": 68, "trial": 67, "rt": 928, "response": "Beta"}, "68": {"stimulus": 35, "trial": 68, "rt": 909, "response": "Alpha"}, "69": {"stimulus": 41, "trial": 69, "rt": 596, "response": "Alpha"}, "80": {"stimulus": 51, "trial": 80, "rt": 1094, "response": "Alpha"}, "52": {"stimulus": 79, "trial": 52, "rt": 797, "response": "Beta"}, "53": {"stimulus": 34, "trial": 53, "rt": 840, "response": "Alpha"}, "24": {"stimulus": 16, "trial": 24, "rt": 1070, "response": "Alpha"}, "25": {"stimulus": 56, "trial": 25, "rt": 2049, "response": "Beta"}, "26": {"stimulus": 54, "trial": 26, "rt": 667, "response": "Beta"}, "27": {"stimulus": 10, "trial": 27, "rt": 1188, "response": "Alpha"}, "20": {"stimulus": 25, "trial": 20, "rt": 568, "response": "Alpha"}, "21": {"stimulus": 66, "trial": 21, "rt": 1574, "response": "Beta"}, "22": {"stimulus": 65, "trial": 22, "rt": 555, "response": "Beta"}, "23": {"stimulus": 80, "trial": 23, "rt": 483, "response": "Beta"}, "46": {"stimulus": 40, "trial": 46, "rt": 1011, "response": "Alpha"}, "47": {"stimulus": 4, "trial": 47, "rt": 676, "response": "Alpha"}, "44": {"stimulus": 73, "trial": 44, "rt": 987, "response": "Beta"}, "45": {"stimulus": 22, "trial": 45, "rt": 1587, "response": "Alpha"}, "28": {"stimulus": 50, "trial": 28, "rt": 906, "response": "Beta"}, "29": {"stimulus": 38, "trial": 29, "rt": 1569, "response": "Beta"}, "40": {"stimulus": 20, "trial": 40, "rt": 919, "response": "Alpha"}, "41": {"stimulus": 32, "trial": 41, "rt": 622, "response": "Alpha"}, "1": {"stimulus": 21, "trial": 1, "rt": 1021, "response": "Alpha"}, "0": {"stimulus": 31, "trial": 0, "rt": 2474, "response": "Alpha"}, "3": {"stimulus": 67, "trial": 3, "rt": 1776, "response": "Beta"}, "2": {"stimulus": 7, "trial": 2, "rt": 924, "response": "Alpha"}, "5": {"stimulus": 23, "trial": 5, "rt": 2274, "response": "Alpha"}, "4": {"stimulus": 13, "trial": 4, "rt": 994, "response": "Alpha"}, "7": {"stimulus": 26, "trial": 7, "rt": 793, "response": "Alpha"}, "6": {"stimulus": 11, "trial": 6, "rt": 1130, "response": "Alpha"}, "9": {"stimulus": 64, "trial": 9, "rt": 1241, "response": "Beta"}, "8": {"stimulus": 18, "trial": 8, "rt": 552, "response": "Alpha"}, "78": {"stimulus": 27, "trial": 78, "rt": 698, "response": "Alpha"}, "51": {"stimulus": 12, "trial": 51, "rt": 538, "response": "Alpha"}, "39": {"stimulus": 55, "trial": 39, "rt": 849, "response": "Beta"}, "65": {"stimulus": 69, "trial": 65, "rt": 847, "response": "Beta"}, "76": {"stimulus": 37, "trial": 76, "rt": 680, "response": "Beta"}, "75": {"stimulus": 42, "trial": 75, "rt": 1334, "response": "Beta"}, "38": {"stimulus": 58, "trial": 38, "rt": 1149, "response": "Beta"}, "73": {"stimulus": 52, "trial": 73, "rt": 981, "response": "Beta"}, "72": {"stimulus": 45, "trial": 72, "rt": 650, "response": "Beta"}, "71": {"stimulus": 47, "trial": 71, "rt": 1846, "response": "Beta"}, "70": {"stimulus": 72, "trial": 70, "rt": 794, "response": "Beta"}, "59": {"stimulus": 8, "trial": 59, "rt": 613, "response": "Alpha"}, "79": {"stimulus": 74, "trial": 79, "rt": 782, "response": "Beta"}, "58": {"stimulus": 36, "trial": 58, "rt": 745, "response": "Alpha"}, "11": {"stimulus": 46, "trial": 11, "rt": 531, "response": "Beta"}, "10": {"stimulus": 57, "trial": 10, "rt": 807, "response": "Beta"}, "13": {"stimulus": 6, "trial": 13, "rt": 1267, "response": "Alpha"}, "12": {"stimulus": 48, "trial": 12, "rt": 578, "response": "Beta"}, "15": {"stimulus": 19, "trial": 15, "rt": 805, "response": "Alpha"}, "14": {"stimulus": 59, "trial": 14, "rt": 1001, "response": "Beta"}, "17": {"stimulus": 29, "trial": 17, "rt": 712, "response": "Alpha"}, "16": {"stimulus": 76, "trial": 16, "rt": 1103, "response": "Beta"}, "19": {"stimulus": 49, "trial": 19, "rt": 905, "response": "Alpha"}, "18": {"stimulus": 15, "trial": 18, "rt": 529, "response": "Alpha"}, "31": {"stimulus": 63, "trial": 31, "rt": 655, "response": "Beta"}, "30": {"stimulus": 71, "trial": 30, "rt": 973, "response": "Beta"}, "37": {"stimulus": 62, "trial": 37, "rt": 2004, "response": "Beta"}, "36": {"stimulus": 28, "trial": 36, "rt": 2219, "response": "Alpha"}, "35": {"stimulus": 78, "trial": 35, "rt": 636, "response": "Beta"}, "34": {"stimulus": 77, "trial": 34, "rt": 1083, "response": "Beta"}, "33": {"stimulus": 61, "trial": 33, "rt": 1627, "response": "Beta"}, "55": {"stimulus": 75, "trial": 55, "rt": 707, "response": "Beta"}, "74": {"stimulus": 39, "trial": 74, "rt": 1540, "response": "Beta"}, "32": {"stimulus": 33, "trial": 32, "rt": 1742, "response": "Alpha"}, "57": {"stimulus": 14, "trial": 57, "rt": 574, "response": "Alpha"}, "50": {"stimulus": 9, "trial": 50, "rt": 598, "response": "Alpha"}}}