{"generation": {"1": {"stimulus": 74, "trial": 1, "rt": 9883}, "0": {"stimulus": 77, "trial": 0, "rt": 11911}, "3": {"stimulus": 58, "trial": 3, "rt": 8458}, "2": {"stimulus": 65, "trial": 2, "rt": 9186}}, "info": {"finish": 1488823190987, "participant": 199, "exposed": true, "lab": false, "start": 1488822903530, "counterbalance": 3, "condition": "Cluster", "browser": {"platform": "Win32", "userAgent": "Mozilla/5.0 (Windows NT 10.0; WOW64) AppleWebKit/537.36 (KHTML, like Gecko) Chrome/56.0.2924.87 Safari/537.36"}}, "experiment": {"Paradigm": "TACL", "Stimuli": "Size-Color Squares", "Experiment": "Generating-Categories"}, "observation": {"11": {"stimulus": 16, "trial": 11, "rt": 966}, "10": {"stimulus": 32, "trial": 10, "rt": 971}, "1": {"stimulus": 32, "trial": 1, "rt": 2191}, "0": {"stimulus": 14, "trial": 0, "rt": 6557}, "3": {"stimulus": 16, "trial": 3, "rt": 1082}, "2": {"stimulus": 34, "trial": 2, "rt": 1086}, "5": {"stimulus": 32, "trial": 5, "rt": 998}, "4": {"stimulus": 14, "trial": 4, "rt": 1093}, "7": {"stimulus": 34, "trial": 7, "rt": 1111}, "6": {"stimulus": 16, "trial": 6, "rt": 1048}, "9": {"stimulus": 14, "trial": 9, "rt": 1030}, "8": {"stimulus": 34, "trial": 8, "rt": 1022}}, "generalization": {"56": {"stimulus": 60, "trial": 56, "rt": 415, "response": "Beta"}, "77": {"stimulus": 33, "trial": 77, "rt": 482, "response": "Alpha"}, "54": {"stimulus": 0, "trial": 54, "rt": 973, "response": "Alpha"}, "42": {"stimulus": 23, "trial": 42, "rt": 570, "response": "Alpha"}, "48": {"stimulus": 75, "trial": 48, "rt": 737, "response": "Beta"}, "43": {"stimulus": 36, "trial": 43, "rt": 581, "response": "Alpha"}, "60": {"stimulus": 19, "trial": 60, "rt": 528, "response": "Alpha"}, "61": {"stimulus": 62, "trial": 61, "rt": 901, "response": "Beta"}, "62": {"stimulus": 42, "trial": 62, "rt": 1469, "response": "Beta"}, "63": {"stimulus": 17, "trial": 63, "rt": 932, "response": "Alpha"}, "64": {"stimulus": 22, "trial": 64, "rt": 530, "response": "Alpha"}, "49": {"stimulus": 6, "trial": 49, "rt": 931, "response": "Alpha"}, "66": {"stimulus": 64, "trial": 66, "rt": 999, "response": "Beta"}, "67": {"stimulus": 76, "trial": 67, "rt": 1364, "response": "Beta"}, "68": {"stimulus": 78, "trial": 68, "rt": 596, "response": "Beta"}, "69": {"stimulus": 39, "trial": 69, "rt": 1178, "response": "Beta"}, "80": {"stimulus": 5, "trial": 80, "rt": 16006, "response": "Alpha"}, "52": {"stimulus": 12, "trial": 52, "rt": 577, "response": "Alpha"}, "53": {"stimulus": 38, "trial": 53, "rt": 1023, "response": "Alpha"}, "24": {"stimulus": 31, "trial": 24, "rt": 1380, "response": "Alpha"}, "25": {"stimulus": 47, "trial": 25, "rt": 1239, "response": "Beta"}, "26": {"stimulus": 55, "trial": 26, "rt": 429, "response": "Beta"}, "27": {"stimulus": 67, "trial": 27, "rt": 433, "response": "Beta"}, "20": {"stimulus": 43, "trial": 20, "rt": 604, "response": "Alpha"}, "21": {"stimulus": 37, "trial": 21, "rt": 889, "response": "Alpha"}, "22": {"stimulus": 73, "trial": 22, "rt": 872, "response": "Beta"}, "23": {"stimulus": 4, "trial": 23, "rt": 2745, "response": "Alpha"}, "46": {"stimulus": 44, "trial": 46, "rt": 388, "response": "Beta"}, "47": {"stimulus": 1, "trial": 47, "rt": 747, "response": "Alpha"}, "44": {"stimulus": 59, "trial": 44, "rt": 439, "response": "Beta"}, "45": {"stimulus": 68, "trial": 45, "rt": 378, "response": "Beta"}, "28": {"stimulus": 25, "trial": 28, "rt": 918, "response": "Alpha"}, "29": {"stimulus": 63, "trial": 29, "rt": 851, "response": "Beta"}, "40": {"stimulus": 56, "trial": 40, "rt": 750, "response": "Alpha"}, "41": {"stimulus": 9, "trial": 41, "rt": 972, "response": "Alpha"}, "1": {"stimulus": 48, "trial": 1, "rt": 1590, "response": "Beta"}, "0": {"stimulus": 79, "trial": 0, "rt": 3085, "response": "Beta"}, "3": {"stimulus": 58, "trial": 3, "rt": 952, "response": "Beta"}, "2": {"stimulus": 46, "trial": 2, "rt": 772, "response": "Beta"}, "5": {"stimulus": 27, "trial": 5, "rt": 924, "response": "Alpha"}, "4": {"stimulus": 50, "trial": 4, "rt": 665, "response": "Beta"}, "7": {"stimulus": 24, "trial": 7, "rt": 1100, "response": "Alpha"}, "6": {"stimulus": 52, "trial": 6, "rt": 980, "response": "Beta"}, "9": {"stimulus": 3, "trial": 9, "rt": 782, "response": "Alpha"}, "8": {"stimulus": 51, "trial": 8, "rt": 877, "response": "Beta"}, "78": {"stimulus": 72, "trial": 78, "rt": 859, "response": "Beta"}, "51": {"stimulus": 32, "trial": 51, "rt": 885, "response": "Alpha"}, "39": {"stimulus": 16, "trial": 39, "rt": 885, "response": "Alpha"}, "65": {"stimulus": 20, "trial": 65, "rt": 493, "response": "Alpha"}, "76": {"stimulus": 30, "trial": 76, "rt": 6585, "response": "Alpha"}, "75": {"stimulus": 74, "trial": 75, "rt": 1116, "response": "Beta"}, "38": {"stimulus": 49, "trial": 38, "rt": 484, "response": "Beta"}, "73": {"stimulus": 77, "trial": 73, "rt": 906, "response": "Beta"}, "72": {"stimulus": 2, "trial": 72, "rt": 549, "response": "Alpha"}, "71": {"stimulus": 7, "trial": 71, "rt": 979, "response": "Alpha"}, "70": {"stimulus": 53, "trial": 70, "rt": 669, "response": "Beta"}, "59": {"stimulus": 15, "trial": 59, "rt": 939, "response": "Alpha"}, "79": {"stimulus": 14, "trial": 79, "rt": 1067, "response": "Alpha"}, "58": {"stimulus": 45, "trial": 58, "rt": 492, "response": "Beta"}, "11": {"stimulus": 26, "trial": 11, "rt": 518, "response": "Alpha"}, "10": {"stimulus": 11, "trial": 10, "rt": 521, "response": "Alpha"}, "13": {"stimulus": 41, "trial": 13, "rt": 1002, "response": "Alpha"}, "12": {"stimulus": 28, "trial": 12, "rt": 599, "response": "Alpha"}, "15": {"stimulus": 21, "trial": 15, "rt": 886, "response": "Alpha"}, "14": {"stimulus": 71, "trial": 14, "rt": 815, "response": "Beta"}, "17": {"stimulus": 40, "trial": 17, "rt": 986, "response": "Beta"}, "16": {"stimulus": 13, "trial": 16, "rt": 459, "response": "Alpha"}, "19": {"stimulus": 10, "trial": 19, "rt": 819, "response": "Alpha"}, "18": {"stimulus": 57, "trial": 18, "rt": 621, "response": "Beta"}, "31": {"stimulus": 18, "trial": 31, "rt": 864, "response": "Alpha"}, "30": {"stimulus": 70, "trial": 30, "rt": 444, "response": "Beta"}, "37": {"stimulus": 80, "trial": 37, "rt": 671, "response": "Beta"}, "36": {"stimulus": 54, "trial": 36, "rt": 2258, "response": "Beta"}, "35": {"stimulus": 34, "trial": 35, "rt": 1282, "response": "Alpha"}, "34": {"stimulus": 66, "trial": 34, "rt": 424, "response": "Beta"}, "33": {"stimulus": 69, "trial": 33, "rt": 1207, "response": "Beta"}, "55": {"stimulus": 65, "trial": 55, "rt": 708, "response": "Beta"}, "74": {"stimulus": 29, "trial": 74, "rt": 1106, "response": "Beta"}, "32": {"stimulus": 35, "trial": 32, "rt": 609, "response": "Alpha"}, "57": {"stimulus": 61, "trial": 57, "rt": 400, "response": "Beta"}, "50": {"stimulus": 8, "trial": 50, "rt": 627, "response": "Alpha"}}}