{"generation": {"1": {"stimulus": 75, "trial": 1, "rt": 10947}, "0": {"stimulus": 72, "trial": 0, "rt": 24227}, "3": {"stimulus": 79, "trial": 3, "rt": 8231}, "2": {"stimulus": 78, "trial": 2, "rt": 8351}}, "info": {"participant": 202, "exposed": true, "lab": false, "start": 1488823092844, "counterbalance": 4, "condition": "Cluster", "browser": {"platform": "Win32", "userAgent": "Mozilla/5.0 (Windows NT 6.3; WOW64; rv:51.0) Gecko/20100101 Firefox/51.0"}}, "experiment": {"Paradigm": "TACL", "Stimuli": "Size-Color Squares", "Experiment": "Generating-Categories"}, "observation": {"11": {"stimulus": 34, "trial": 11, "rt": 1639}, "10": {"stimulus": 32, "trial": 10, "rt": 1159}, "1": {"stimulus": 14, "trial": 1, "rt": 2149}, "0": {"stimulus": 16, "trial": 0, "rt": 3196}, "3": {"stimulus": 34, "trial": 3, "rt": 2241}, "2": {"stimulus": 32, "trial": 2, "rt": 2046}, "5": {"stimulus": 32, "trial": 5, "rt": 2241}, "4": {"stimulus": 14, "trial": 4, "rt": 2190}, "7": {"stimulus": 16, "trial": 7, "rt": 1204}, "6": {"stimulus": 34, "trial": 6, "rt": 1412}, "9": {"stimulus": 16, "trial": 9, "rt": 1163}, "8": {"stimulus": 14, "trial": 8, "rt": 1265}}, "generalization": {"56": {"stimulus": 65, "trial": 56, "rt": 2413, "response": "Beta"}, "77": {"stimulus": 76, "trial": 77, "rt": 1030, "response": "Beta"}, "54": {"stimulus": 19, "trial": 54, "rt": 972, "response": "Alpha"}, "42": {"stimulus": 44, "trial": 42, "rt": 1009, "response": "Alpha"}, "48": {"stimulus": 18, "trial": 48, "rt": 722, "response": "Alpha"}, "43": {"stimulus": 21, "trial": 43, "rt": 741, "response": "Alpha"}, "60": {"stimulus": 79, "trial": 60, "rt": 1384, "response": "Beta"}, "61": {"stimulus": 25, "trial": 61, "rt": 885, "response": "Alpha"}, "62": {"stimulus": 38, "trial": 62, "rt": 831, "response": "Alpha"}, "63": {"stimulus": 41, "trial": 63, "rt": 823, "response": "Alpha"}, "64": {"stimulus": 1, "trial": 64, "rt": 591, "response": "Alpha"}, "49": {"stimulus": 29, "trial": 49, "rt": 687, "response": "Alpha"}, "66": {"stimulus": 20, "trial": 66, "rt": 581, "response": "Alpha"}, "67": {"stimulus": 66, "trial": 67, "rt": 1143, "response": "Beta"}, "68": {"stimulus": 58, "trial": 68, "rt": 1208, "response": "Alpha"}, "69": {"stimulus": 37, "trial": 69, "rt": 968, "response": "Alpha"}, "80": {"stimulus": 10, "trial": 80, "rt": 822, "response": "Alpha"}, "52": {"stimulus": 67, "trial": 52, "rt": 1058, "response": "Beta"}, "53": {"stimulus": 70, "trial": 53, "rt": 1016, "response": "Beta"}, "24": {"stimulus": 35, "trial": 24, "rt": 1049, "response": "Alpha"}, "25": {"stimulus": 62, "trial": 25, "rt": 1198, "response": "Beta"}, "26": {"stimulus": 4, "trial": 26, "rt": 903, "response": "Alpha"}, "27": {"stimulus": 6, "trial": 27, "rt": 841, "response": "Alpha"}, "20": {"stimulus": 60, "trial": 20, "rt": 1390, "response": "Alpha"}, "21": {"stimulus": 71, "trial": 21, "rt": 964, "response": "Alpha"}, "22": {"stimulus": 13, "trial": 22, "rt": 855, "response": "Alpha"}, "23": {"stimulus": 9, "trial": 23, "rt": 872, "response": "Alpha"}, "46": {"stimulus": 52, "trial": 46, "rt": 2545, "response": "Alpha"}, "47": {"stimulus": 53, "trial": 47, "rt": 826, "response": "Alpha"}, "44": {"stimulus": 51, "trial": 44, "rt": 1363, "response": "Beta"}, "45": {"stimulus": 57, "trial": 45, "rt": 1848, "response": "Beta"}, "28": {"stimulus": 23, "trial": 28, "rt": 2617, "response": "Alpha"}, "29": {"stimulus": 33, "trial": 29, "rt": 796, "response": "Alpha"}, "40": {"stimulus": 8, "trial": 40, "rt": 890, "response": "Alpha"}, "41": {"stimulus": 26, "trial": 41, "rt": 700, "response": "Alpha"}, "1": {"stimulus": 78, "trial": 1, "rt": 2515, "response": "Beta"}, "0": {"stimulus": 45, "trial": 0, "rt": 1944, "response": "Alpha"}, "3": {"stimulus": 27, "trial": 3, "rt": 1390, "response": "Alpha"}, "2": {"stimulus": 28, "trial": 2, "rt": 1283, "response": "Alpha"}, "5": {"stimulus": 24, "trial": 5, "rt": 1746, "response": "Alpha"}, "4": {"stimulus": 55, "trial": 4, "rt": 2420, "response": "Alpha"}, "7": {"stimulus": 49, "trial": 7, "rt": 1619, "response": "Alpha"}, "6": {"stimulus": 30, "trial": 6, "rt": 1335, "response": "Alpha"}, "9": {"stimulus": 43, "trial": 9, "rt": 1183, "response": "Alpha"}, "8": {"stimulus": 80, "trial": 8, "rt": 1230, "response": "Beta"}, "78": {"stimulus": 61, "trial": 78, "rt": 859, "response": "Beta"}, "51": {"stimulus": 3, "trial": 51, "rt": 1475, "response": "Alpha"}, "39": {"stimulus": 69, "trial": 39, "rt": 1608, "response": "Beta"}, "65": {"stimulus": 5, "trial": 65, "rt": 649, "response": "Alpha"}, "76": {"stimulus": 0, "trial": 76, "rt": 721, "response": "Alpha"}, "75": {"stimulus": 34, "trial": 75, "rt": 737, "response": "Alpha"}, "38": {"stimulus": 39, "trial": 38, "rt": 1206, "response": "Alpha"}, "73": {"stimulus": 46, "trial": 73, "rt": 1783, "response": "Alpha"}, "72": {"stimulus": 40, "trial": 72, "rt": 1088, "response": "Alpha"}, "71": {"stimulus": 14, "trial": 71, "rt": 816, "response": "Alpha"}, "70": {"stimulus": 31, "trial": 70, "rt": 715, "response": "Alpha"}, "59": {"stimulus": 32, "trial": 59, "rt": 1035, "response": "Alpha"}, "79": {"stimulus": 22, "trial": 79, "rt": 907, "response": "Alpha"}, "58": {"stimulus": 75, "trial": 58, "rt": 1530, "response": "Beta"}, "11": {"stimulus": 72, "trial": 11, "rt": 1643, "response": "Beta"}, "10": {"stimulus": 63, "trial": 10, "rt": 1601, "response": "Alpha"}, "13": {"stimulus": 59, "trial": 13, "rt": 2778, "response": "Beta"}, "12": {"stimulus": 17, "trial": 12, "rt": 958, "response": "Alpha"}, "15": {"stimulus": 68, "trial": 15, "rt": 1196, "response": "Beta"}, "14": {"stimulus": 16, "trial": 14, "rt": 977, "response": "Alpha"}, "17": {"stimulus": 15, "trial": 17, "rt": 1150, "response": "Alpha"}, "16": {"stimulus": 36, "trial": 16, "rt": 869, "response": "Alpha"}, "19": {"stimulus": 77, "trial": 19, "rt": 1276, "response": "Beta"}, "18": {"stimulus": 50, "trial": 18, "rt": 1413, "response": "Alpha"}, "31": {"stimulus": 2, "trial": 31, "rt": 674, "response": "Alpha"}, "30": {"stimulus": 47, "trial": 30, "rt": 1091, "response": "Alpha"}, "37": {"stimulus": 54, "trial": 37, "rt": 682, "response": "Beta"}, "36": {"stimulus": 73, "trial": 36, "rt": 1271, "response": "Beta"}, "35": {"stimulus": 7, "trial": 35, "rt": 667, "response": "Alpha"}, "34": {"stimulus": 11, "trial": 34, "rt": 781, "response": "Alpha"}, "33": {"stimulus": 12, "trial": 33, "rt": 985, "response": "Alpha"}, "55": {"stimulus": 64, "trial": 55, "rt": 1040, "response": "Beta"}, "74": {"stimulus": 42, "trial": 74, "rt": 694, "response": "Alpha"}, "32": {"stimulus": 56, "trial": 32, "rt": 1254, "response": "Beta"}, "57": {"stimulus": 48, "trial": 57, "rt": 1451, "response": "Alpha"}, "50": {"stimulus": 74, "trial": 50, "rt": 1764, "response": "Beta"}}}