{"generation": {"1": {"stimulus": 49, "trial": 1, "rt": 2854}, "0": {"stimulus": 2, "trial": 0, "rt": 6310}, "3": {"stimulus": 22, "trial": 3, "rt": 2618}, "2": {"stimulus": 47, "trial": 2, "rt": 2643}}, "info": {"finish": 1488823947667, "participant": 203, "exposed": true, "lab": false, "start": 1488822932122, "counterbalance": 3, "condition": "Cluster", "browser": {"platform": "Win32", "userAgent": "Mozilla/5.0 (Windows NT 6.3; WOW64; rv:51.0) Gecko/20100101 Firefox/51.0"}}, "experiment": {"Paradigm": "TACL", "Stimuli": "Size-Color Squares", "Experiment": "Generating-Categories"}, "observation": {"11": {"stimulus": 14, "trial": 11, "rt": 763}, "10": {"stimulus": 34, "trial": 10, "rt": 1107}, "1": {"stimulus": 16, "trial": 1, "rt": 1160}, "0": {"stimulus": 14, "trial": 0, "rt": 1954}, "3": {"stimulus": 32, "trial": 3, "rt": 955}, "2": {"stimulus": 34, "trial": 2, "rt": 2227}, "5": {"stimulus": 14, "trial": 5, "rt": 896}, "4": {"stimulus": 32, "trial": 4, "rt": 1011}, "7": {"stimulus": 34, "trial": 7, "rt": 627}, "6": {"stimulus": 16, "trial": 6, "rt": 1030}, "9": {"stimulus": 32, "trial": 9, "rt": 6900}, "8": {"stimulus": 16, "trial": 8, "rt": 755}}, "generalization": {"56": {"stimulus": 15, "trial": 56, "rt": 194, "response": "Beta"}, "77": {"stimulus": 44, "trial": 77, "rt": 251, "response": "Alpha"}, "54": {"stimulus": 18, "trial": 54, "rt": 116, "response": "Beta"}, "42": {"stimulus": 10, "trial": 42, "rt": 276, "response": "Alpha"}, "48": {"stimulus": 6, "trial": 48, "rt": 260, "response": "Beta"}, "43": {"stimulus": 60, "trial": 43, "rt": 73, "response": "Alpha"}, "60": {"stimulus": 27, "trial": 60, "rt": 268, "response": "Alpha"}, "61": {"stimulus": 70, "trial": 61, "rt": 1602, "response": "Beta"}, "62": {"stimulus": 38, "trial": 62, "rt": 1379, "response": "Beta"}, "63": {"stimulus": 8, "trial": 63, "rt": 635, "response": "Alpha"}, "64": {"stimulus": 16, "trial": 64, "rt": 1235, "response": "Alpha"}, "49": {"stimulus": 37, "trial": 49, "rt": 404, "response": "Alpha"}, "66": {"stimulus": 74, "trial": 66, "rt": 732, "response": "Alpha"}, "67": {"stimulus": 19, "trial": 67, "rt": 322, "response": "Beta"}, "68": {"stimulus": 13, "trial": 68, "rt": 196, "response": "Beta"}, "69": {"stimulus": 62, "trial": 69, "rt": 1339, "response": "Beta"}, "80": {"stimulus": 69, "trial": 80, "rt": 339, "response": "Alpha"}, "52": {"stimulus": 12, "trial": 52, "rt": 212, "response": "Beta"}, "53": {"stimulus": 22, "trial": 53, "rt": 354, "response": "Alpha"}, "24": {"stimulus": 72, "trial": 24, "rt": 170, "response": "Alpha"}, "25": {"stimulus": 67, "trial": 25, "rt": 75, "response": "Alpha"}, "26": {"stimulus": 25, "trial": 26, "rt": 235, "response": "Alpha"}, "27": {"stimulus": 14, "trial": 27, "rt": 484, "response": "Alpha"}, "20": {"stimulus": 51, "trial": 20, "rt": 76, "response": "Alpha"}, "21": {"stimulus": 55, "trial": 21, "rt": 90, "response": "Beta"}, "22": {"stimulus": 78, "trial": 22, "rt": 184, "response": "Alpha"}, "23": {"stimulus": 50, "trial": 23, "rt": 418, "response": "Beta"}, "46": {"stimulus": 34, "trial": 46, "rt": 164, "response": "Beta"}, "47": {"stimulus": 68, "trial": 47, "rt": 80, "response": "Alpha"}, "44": {"stimulus": 4, "trial": 44, "rt": 115, "response": "Alpha"}, "45": {"stimulus": 11, "trial": 45, "rt": 467, "response": "Alpha"}, "28": {"stimulus": 35, "trial": 28, "rt": 209, "response": "Alpha"}, "29": {"stimulus": 76, "trial": 29, "rt": 129, "response": "Beta"}, "40": {"stimulus": 7, "trial": 40, "rt": 324, "response": "Beta"}, "41": {"stimulus": 31, "trial": 41, "rt": 515, "response": "Beta"}, "1": {"stimulus": 39, "trial": 1, "rt": 355, "response": "Beta"}, "0": {"stimulus": 30, "trial": 0, "rt": 879, "response": "Alpha"}, "3": {"stimulus": 24, "trial": 3, "rt": 268, "response": "Alpha"}, "2": {"stimulus": 48, "trial": 2, "rt": 323, "response": "Beta"}, "5": {"stimulus": 28, "trial": 5, "rt": 302, "response": "Alpha"}, "4": {"stimulus": 1, "trial": 4, "rt": 209, "response": "Alpha"}, "7": {"stimulus": 52, "trial": 7, "rt": 227, "response": "Alpha"}, "6": {"stimulus": 59, "trial": 6, "rt": 123, "response": "Beta"}, "9": {"stimulus": 63, "trial": 9, "rt": 291, "response": "Beta"}, "8": {"stimulus": 56, "trial": 8, "rt": 115, "response": "Beta"}, "78": {"stimulus": 58, "trial": 78, "rt": 213, "response": "Alpha"}, "51": {"stimulus": 80, "trial": 51, "rt": 971, "response": "Alpha"}, "39": {"stimulus": 26, "trial": 39, "rt": 1027, "response": "Beta"}, "65": {"stimulus": 33, "trial": 65, "rt": 1019, "response": "Alpha"}, "76": {"stimulus": 36, "trial": 76, "rt": 1598, "response": "Alpha"}, "75": {"stimulus": 71, "trial": 75, "rt": 649, "response": "Alpha"}, "38": {"stimulus": 49, "trial": 38, "rt": 290, "response": "Alpha"}, "73": {"stimulus": 29, "trial": 73, "rt": 24794, "response": "Alpha"}, "72": {"stimulus": 64, "trial": 72, "rt": 218, "response": "Alpha"}, "71": {"stimulus": 66, "trial": 71, "rt": 267, "response": "Alpha"}, "70": {"stimulus": 42, "trial": 70, "rt": 40099, "response": "Alpha"}, "59": {"stimulus": 20, "trial": 59, "rt": 58, "response": "Beta"}, "79": {"stimulus": 0, "trial": 79, "rt": 371, "response": "Alpha"}, "58": {"stimulus": 21, "trial": 58, "rt": 188, "response": "Alpha"}, "11": {"stimulus": 2, "trial": 11, "rt": 243, "response": "Alpha"}, "10": {"stimulus": 41, "trial": 10, "rt": 401, "response": "Beta"}, "13": {"stimulus": 75, "trial": 13, "rt": 139, "response": "Alpha"}, "12": {"stimulus": 47, "trial": 12, "rt": 82, "response": "Alpha"}, "15": {"stimulus": 43, "trial": 15, "rt": 179, "response": "Alpha"}, "14": {"stimulus": 5, "trial": 14, "rt": 355, "response": "Alpha"}, "17": {"stimulus": 23, "trial": 17, "rt": 260, "response": "Alpha"}, "16": {"stimulus": 73, "trial": 16, "rt": 1515, "response": "Alpha"}, "19": {"stimulus": 79, "trial": 19, "rt": 1515, "response": "Alpha"}, "18": {"stimulus": 53, "trial": 18, "rt": 731, "response": "Beta"}, "31": {"stimulus": 45, "trial": 31, "rt": 98, "response": "Beta"}, "30": {"stimulus": 54, "trial": 30, "rt": 91, "response": "Beta"}, "37": {"stimulus": 65, "trial": 37, "rt": 68, "response": "Beta"}, "36": {"stimulus": 40, "trial": 36, "rt": 284, "response": "Alpha"}, "35": {"stimulus": 77, "trial": 35, "rt": 914, "response": "Alpha"}, "34": {"stimulus": 3, "trial": 34, "rt": 1476, "response": "Alpha"}, "33": {"stimulus": 9, "trial": 33, "rt": 282, "response": "Beta"}, "55": {"stimulus": 46, "trial": 55, "rt": 210, "response": "Alpha"}, "74": {"stimulus": 57, "trial": 74, "rt": 988, "response": "Beta"}, "32": {"stimulus": 61, "trial": 32, "rt": 474, "response": "Alpha"}, "57": {"stimulus": 17, "trial": 57, "rt": 82, "response": "Beta"}, "50": {"stimulus": 32, "trial": 50, "rt": 1689, "response": "Alpha"}}}