{"generation": {"1": {"stimulus": 42, "trial": 1, "rt": 4555}, "0": {"stimulus": 35, "trial": 0, "rt": 25600}, "3": {"stimulus": 64, "trial": 3, "rt": 2885}, "2": {"stimulus": 39, "trial": 2, "rt": 4525}}, "info": {"finish": 1488823125491, "participant": 204, "exposed": true, "lab": false, "start": 1488822933772, "counterbalance": 2, "condition": "Row", "browser": {"platform": "Win32", "userAgent": "Mozilla/5.0 (Windows NT 6.1; WOW64) AppleWebKit/537.36 (KHTML, like Gecko) Chrome/56.0.2924.87 Safari/537.36"}}, "experiment": {"Paradigm": "TACL", "Stimuli": "Size-Color Squares", "Experiment": "Generating-Categories"}, "observation": {"11": {"stimulus": 12, "trial": 11, "rt": 970}, "10": {"stimulus": 14, "trial": 10, "rt": 1077}, "1": {"stimulus": 16, "trial": 1, "rt": 1506}, "0": {"stimulus": 12, "trial": 0, "rt": 2587}, "3": {"stimulus": 14, "trial": 3, "rt": 1225}, "2": {"stimulus": 10, "trial": 2, "rt": 1566}, "5": {"stimulus": 16, "trial": 5, "rt": 1049}, "4": {"stimulus": 10, "trial": 4, "rt": 1393}, "7": {"stimulus": 12, "trial": 7, "rt": 1208}, "6": {"stimulus": 14, "trial": 6, "rt": 1052}, "9": {"stimulus": 10, "trial": 9, "rt": 1135}, "8": {"stimulus": 16, "trial": 8, "rt": 1182}}, "generalization": {"56": {"stimulus": 64, "trial": 56, "rt": 560, "response": "Beta"}, "77": {"stimulus": 23, "trial": 77, "rt": 942, "response": "Beta"}, "54": {"stimulus": 32, "trial": 54, "rt": 556, "response": "Beta"}, "42": {"stimulus": 14, "trial": 42, "rt": 410, "response": "Beta"}, "48": {"stimulus": 65, "trial": 48, "rt": 517, "response": "Beta"}, "43": {"stimulus": 6, "trial": 43, "rt": 975, "response": "Alpha"}, "60": {"stimulus": 72, "trial": 60, "rt": 427, "response": "Beta"}, "61": {"stimulus": 7, "trial": 61, "rt": 1006, "response": "Alpha"}, "62": {"stimulus": 35, "trial": 62, "rt": 568, "response": "Beta"}, "63": {"stimulus": 57, "trial": 63, "rt": 476, "response": "Beta"}, "64": {"stimulus": 47, "trial": 64, "rt": 476, "response": "Beta"}, "49": {"stimulus": 48, "trial": 49, "rt": 510, "response": "Beta"}, "66": {"stimulus": 25, "trial": 66, "rt": 638, "response": "Beta"}, "67": {"stimulus": 73, "trial": 67, "rt": 564, "response": "Beta"}, "68": {"stimulus": 42, "trial": 68, "rt": 567, "response": "Beta"}, "69": {"stimulus": 27, "trial": 69, "rt": 458, "response": "Beta"}, "80": {"stimulus": 30, "trial": 80, "rt": 594, "response": "Beta"}, "52": {"stimulus": 56, "trial": 52, "rt": 612, "response": "Beta"}, "53": {"stimulus": 59, "trial": 53, "rt": 549, "response": "Beta"}, "24": {"stimulus": 8, "trial": 24, "rt": 2751, "response": "Alpha"}, "25": {"stimulus": 26, "trial": 25, "rt": 890, "response": "Beta"}, "26": {"stimulus": 21, "trial": 26, "rt": 708, "response": "Beta"}, "27": {"stimulus": 13, "trial": 27, "rt": 2063, "response": "Beta"}, "20": {"stimulus": 33, "trial": 20, "rt": 610, "response": "Beta"}, "21": {"stimulus": 4, "trial": 21, "rt": 947, "response": "Alpha"}, "22": {"stimulus": 40, "trial": 22, "rt": 905, "response": "Beta"}, "23": {"stimulus": 1, "trial": 23, "rt": 934, "response": "Alpha"}, "46": {"stimulus": 62, "trial": 46, "rt": 506, "response": "Beta"}, "47": {"stimulus": 75, "trial": 47, "rt": 488, "response": "Beta"}, "44": {"stimulus": 58, "trial": 44, "rt": 707, "response": "Beta"}, "45": {"stimulus": 52, "trial": 45, "rt": 490, "response": "Beta"}, "28": {"stimulus": 18, "trial": 28, "rt": 949, "response": "Beta"}, "29": {"stimulus": 77, "trial": 29, "rt": 515, "response": "Beta"}, "40": {"stimulus": 50, "trial": 40, "rt": 424, "response": "Beta"}, "41": {"stimulus": 31, "trial": 41, "rt": 453, "response": "Beta"}, "1": {"stimulus": 71, "trial": 1, "rt": 1003, "response": "Beta"}, "0": {"stimulus": 76, "trial": 0, "rt": 2178, "response": "Beta"}, "3": {"stimulus": 78, "trial": 3, "rt": 528, "response": "Beta"}, "2": {"stimulus": 68, "trial": 2, "rt": 558, "response": "Beta"}, "5": {"stimulus": 67, "trial": 5, "rt": 454, "response": "Beta"}, "4": {"stimulus": 69, "trial": 4, "rt": 585, "response": "Beta"}, "7": {"stimulus": 22, "trial": 7, "rt": 734, "response": "Alpha"}, "6": {"stimulus": 9, "trial": 6, "rt": 1432, "response": "Alpha"}, "9": {"stimulus": 37, "trial": 9, "rt": 1024, "response": "Beta"}, "8": {"stimulus": 15, "trial": 8, "rt": 2846, "response": "Alpha"}, "78": {"stimulus": 19, "trial": 78, "rt": 866, "response": "Beta"}, "51": {"stimulus": 63, "trial": 51, "rt": 531, "response": "Beta"}, "39": {"stimulus": 28, "trial": 39, "rt": 520, "response": "Beta"}, "65": {"stimulus": 16, "trial": 65, "rt": 1034, "response": "Alpha"}, "76": {"stimulus": 5, "trial": 76, "rt": 940, "response": "Alpha"}, "75": {"stimulus": 2, "trial": 75, "rt": 437, "response": "Beta"}, "38": {"stimulus": 70, "trial": 38, "rt": 490, "response": "Beta"}, "73": {"stimulus": 74, "trial": 73, "rt": 460, "response": "Beta"}, "72": {"stimulus": 79, "trial": 72, "rt": 679, "response": "Beta"}, "71": {"stimulus": 61, "trial": 71, "rt": 7001, "response": "Beta"}, "70": {"stimulus": 11, "trial": 70, "rt": 1156, "response": "Alpha"}, "59": {"stimulus": 17, "trial": 59, "rt": 1049, "response": "Alpha"}, "79": {"stimulus": 34, "trial": 79, "rt": 556, "response": "Beta"}, "58": {"stimulus": 20, "trial": 58, "rt": 586, "response": "Beta"}, "11": {"stimulus": 49, "trial": 11, "rt": 631, "response": "Beta"}, "10": {"stimulus": 53, "trial": 10, "rt": 776, "response": "Beta"}, "13": {"stimulus": 55, "trial": 13, "rt": 515, "response": "Beta"}, "12": {"stimulus": 51, "trial": 12, "rt": 636, "response": "Beta"}, "15": {"stimulus": 3, "trial": 15, "rt": 960, "response": "Alpha"}, "14": {"stimulus": 38, "trial": 14, "rt": 567, "response": "Beta"}, "17": {"stimulus": 12, "trial": 17, "rt": 673, "response": "Beta"}, "16": {"stimulus": 41, "trial": 16, "rt": 1210, "response": "Beta"}, "19": {"stimulus": 44, "trial": 19, "rt": 2547, "response": "Beta"}, "18": {"stimulus": 66, "trial": 18, "rt": 3583, "response": "Beta"}, "31": {"stimulus": 46, "trial": 31, "rt": 636, "response": "Beta"}, "30": {"stimulus": 10, "trial": 30, "rt": 1099, "response": "Alpha"}, "37": {"stimulus": 45, "trial": 37, "rt": 548, "response": "Beta"}, "36": {"stimulus": 24, "trial": 36, "rt": 563, "response": "Beta"}, "35": {"stimulus": 39, "trial": 35, "rt": 536, "response": "Beta"}, "34": {"stimulus": 36, "trial": 34, "rt": 568, "response": "Beta"}, "33": {"stimulus": 29, "trial": 33, "rt": 626, "response": "Beta"}, "55": {"stimulus": 0, "trial": 55, "rt": 1404, "response": "Alpha"}, "74": {"stimulus": 80, "trial": 74, "rt": 515, "response": "Beta"}, "32": {"stimulus": 60, "trial": 32, "rt": 925, "response": "Beta"}, "57": {"stimulus": 54, "trial": 57, "rt": 525, "response": "Beta"}, "50": {"stimulus": 43, "trial": 50, "rt": 498, "response": "Beta"}}}