{"generation": {"1": {"stimulus": 54, "trial": 1, "rt": 4044}, "0": {"stimulus": 42, "trial": 0, "rt": 3121}, "3": {"stimulus": 35, "trial": 3, "rt": 3866}, "2": {"stimulus": 8, "trial": 2, "rt": 3928}}, "info": {"finish": 1488823132508, "participant": 205, "exposed": true, "lab": false, "start": 1488822950220, "counterbalance": 5, "condition": "Row", "browser": {"platform": "Win32", "userAgent": "Mozilla/5.0 (Windows NT 10.0; WOW64; rv:51.0) Gecko/20100101 Firefox/51.0"}}, "experiment": {"Paradigm": "TACL", "Stimuli": "Size-Color Squares", "Experiment": "Generating-Categories"}, "observation": {"11": {"stimulus": 12, "trial": 11, "rt": 734}, "10": {"stimulus": 10, "trial": 10, "rt": 839}, "1": {"stimulus": 10, "trial": 1, "rt": 1961}, "0": {"stimulus": 12, "trial": 0, "rt": 1491}, "3": {"stimulus": 16, "trial": 3, "rt": 800}, "2": {"stimulus": 14, "trial": 2, "rt": 15404}, "5": {"stimulus": 10, "trial": 5, "rt": 1561}, "4": {"stimulus": 14, "trial": 4, "rt": 903}, "7": {"stimulus": 16, "trial": 7, "rt": 851}, "6": {"stimulus": 12, "trial": 6, "rt": 724}, "9": {"stimulus": 16, "trial": 9, "rt": 25086}, "8": {"stimulus": 14, "trial": 8, "rt": 3999}}, "generalization": {"56": {"stimulus": 34, "trial": 56, "rt": 875, "response": "Beta"}, "77": {"stimulus": 56, "trial": 77, "rt": 249, "response": "Alpha"}, "54": {"stimulus": 24, "trial": 54, "rt": 241, "response": "Beta"}, "42": {"stimulus": 3, "trial": 42, "rt": 494, "response": "Alpha"}, "48": {"stimulus": 27, "trial": 48, "rt": 412, "response": "Alpha"}, "43": {"stimulus": 59, "trial": 43, "rt": 528, "response": "Beta"}, "60": {"stimulus": 12, "trial": 60, "rt": 781, "response": "Beta"}, "61": {"stimulus": 64, "trial": 61, "rt": 319, "response": "Alpha"}, "62": {"stimulus": 32, "trial": 62, "rt": 256, "response": "Beta"}, "63": {"stimulus": 43, "trial": 63, "rt": 962, "response": "Beta"}, "64": {"stimulus": 51, "trial": 64, "rt": 623, "response": "Alpha"}, "49": {"stimulus": 14, "trial": 49, "rt": 219, "response": "Beta"}, "66": {"stimulus": 6, "trial": 66, "rt": 171, "response": "Alpha"}, "67": {"stimulus": 23, "trial": 67, "rt": 593, "response": "Beta"}, "68": {"stimulus": 9, "trial": 68, "rt": 545, "response": "Alpha"}, "69": {"stimulus": 37, "trial": 69, "rt": 418, "response": "Beta"}, "80": {"stimulus": 30, "trial": 80, "rt": 491, "response": "Beta"}, "52": {"stimulus": 17, "trial": 52, "rt": 793, "response": "Alpha"}, "53": {"stimulus": 55, "trial": 53, "rt": 284, "response": "Alpha"}, "24": {"stimulus": 75, "trial": 24, "rt": 912, "response": "Beta"}, "25": {"stimulus": 35, "trial": 25, "rt": 1566, "response": "Alpha"}, "26": {"stimulus": 67, "trial": 26, "rt": 641, "response": "Beta"}, "27": {"stimulus": 72, "trial": 27, "rt": 968, "response": "Beta"}, "20": {"stimulus": 76, "trial": 20, "rt": 781, "response": "Beta"}, "21": {"stimulus": 2, "trial": 21, "rt": 742, "response": "Beta"}, "22": {"stimulus": 20, "trial": 22, "rt": 834, "response": "Beta"}, "23": {"stimulus": 77, "trial": 23, "rt": 1025, "response": "Beta"}, "46": {"stimulus": 47, "trial": 46, "rt": 420, "response": "Alpha"}, "47": {"stimulus": 10, "trial": 47, "rt": 367, "response": "Alpha"}, "44": {"stimulus": 73, "trial": 44, "rt": 327, "response": "Alpha"}, "45": {"stimulus": 42, "trial": 45, "rt": 1226, "response": "Alpha"}, "28": {"stimulus": 13, "trial": 28, "rt": 1311, "response": "Beta"}, "29": {"stimulus": 39, "trial": 29, "rt": 701, "response": "Alpha"}, "40": {"stimulus": 18, "trial": 40, "rt": 202, "response": "Alpha"}, "41": {"stimulus": 45, "trial": 41, "rt": 224, "response": "Beta"}, "1": {"stimulus": 52, "trial": 1, "rt": 1061, "response": "Beta"}, "0": {"stimulus": 44, "trial": 0, "rt": 1358, "response": "Beta"}, "3": {"stimulus": 29, "trial": 3, "rt": 889, "response": "Alpha"}, "2": {"stimulus": 19, "trial": 2, "rt": 679, "response": "Alpha"}, "5": {"stimulus": 11, "trial": 5, "rt": 805, "response": "Alpha"}, "4": {"stimulus": 28, "trial": 4, "rt": 639, "response": "Alpha"}, "7": {"stimulus": 60, "trial": 7, "rt": 921, "response": "Beta"}, "6": {"stimulus": 74, "trial": 6, "rt": 741, "response": "Alpha"}, "9": {"stimulus": 40, "trial": 9, "rt": 671, "response": "Alpha"}, "8": {"stimulus": 79, "trial": 8, "rt": 1811, "response": "Beta"}, "78": {"stimulus": 62, "trial": 78, "rt": 505, "response": "Beta"}, "51": {"stimulus": 70, "trial": 51, "rt": 241, "response": "Beta"}, "39": {"stimulus": 1, "trial": 39, "rt": 157, "response": "Beta"}, "65": {"stimulus": 50, "trial": 65, "rt": 335, "response": "Beta"}, "76": {"stimulus": 8, "trial": 76, "rt": 443, "response": "Beta"}, "75": {"stimulus": 15, "trial": 75, "rt": 141, "response": "Alpha"}, "38": {"stimulus": 26, "trial": 38, "rt": 311, "response": "Alpha"}, "73": {"stimulus": 49, "trial": 73, "rt": 360, "response": "Alpha"}, "72": {"stimulus": 36, "trial": 72, "rt": 617, "response": "Beta"}, "71": {"stimulus": 41, "trial": 71, "rt": 364, "response": "Alpha"}, "70": {"stimulus": 46, "trial": 70, "rt": 307, "response": "Beta"}, "59": {"stimulus": 57, "trial": 59, "rt": 497, "response": "Alpha"}, "79": {"stimulus": 53, "trial": 79, "rt": 233, "response": "Alpha"}, "58": {"stimulus": 5, "trial": 58, "rt": 1023, "response": "Beta"}, "11": {"stimulus": 71, "trial": 11, "rt": 803, "response": "Alpha"}, "10": {"stimulus": 0, "trial": 10, "rt": 912, "response": "Beta"}, "13": {"stimulus": 7, "trial": 13, "rt": 905, "response": "Beta"}, "12": {"stimulus": 33, "trial": 12, "rt": 741, "response": "Beta"}, "15": {"stimulus": 80, "trial": 15, "rt": 914, "response": "Beta"}, "14": {"stimulus": 68, "trial": 14, "rt": 937, "response": "Alpha"}, "17": {"stimulus": 48, "trial": 17, "rt": 924, "response": "Alpha"}, "16": {"stimulus": 54, "trial": 16, "rt": 803, "response": "Beta"}, "19": {"stimulus": 69, "trial": 19, "rt": 910, "response": "Alpha"}, "18": {"stimulus": 66, "trial": 18, "rt": 1110, "response": "Beta"}, "31": {"stimulus": 65, "trial": 31, "rt": 1186, "response": "Beta"}, "30": {"stimulus": 21, "trial": 30, "rt": 1416, "response": "Alpha"}, "37": {"stimulus": 31, "trial": 37, "rt": 529, "response": "Beta"}, "36": {"stimulus": 25, "trial": 36, "rt": 251, "response": "Alpha"}, "35": {"stimulus": 16, "trial": 35, "rt": 195, "response": "Beta"}, "34": {"stimulus": 63, "trial": 34, "rt": 1389, "response": "Alpha"}, "33": {"stimulus": 22, "trial": 33, "rt": 679, "response": "Beta"}, "55": {"stimulus": 61, "trial": 55, "rt": 255, "response": "Alpha"}, "74": {"stimulus": 58, "trial": 74, "rt": 357, "response": "Beta"}, "32": {"stimulus": 4, "trial": 32, "rt": 632, "response": "Alpha"}, "57": {"stimulus": 78, "trial": 57, "rt": 1093, "response": "Beta"}, "50": {"stimulus": 38, "trial": 50, "rt": 246, "response": "Alpha"}}}