{"generation": {"1": {"stimulus": 25, "trial": 1, "rt": 4816}, "0": {"stimulus": 65, "trial": 0, "rt": 6442}, "3": {"stimulus": 39, "trial": 3, "rt": 4233}, "2": {"stimulus": 34, "trial": 2, "rt": 3007}}, "info": {"finish": 1488823212545, "participant": 206, "exposed": true, "lab": false, "start": 1488822951527, "counterbalance": 4, "condition": "Row", "browser": {"platform": "MacIntel", "userAgent": "Mozilla/5.0 (Macintosh; Intel Mac OS X 10_12_3) AppleWebKit/537.36 (KHTML, like Gecko) Chrome/56.0.2924.87 Safari/537.36"}}, "experiment": {"Paradigm": "TACL", "Stimuli": "Size-Color Squares", "Experiment": "Generating-Categories"}, "observation": {"11": {"stimulus": 16, "trial": 11, "rt": 1521}, "10": {"stimulus": 10, "trial": 10, "rt": 1022}, "1": {"stimulus": 16, "trial": 1, "rt": 1993}, "0": {"stimulus": 10, "trial": 0, "rt": 1918}, "3": {"stimulus": 14, "trial": 3, "rt": 1328}, "2": {"stimulus": 12, "trial": 2, "rt": 1057}, "5": {"stimulus": 10, "trial": 5, "rt": 892}, "4": {"stimulus": 12, "trial": 4, "rt": 1250}, "7": {"stimulus": 14, "trial": 7, "rt": 1145}, "6": {"stimulus": 16, "trial": 6, "rt": 964}, "9": {"stimulus": 14, "trial": 9, "rt": 1213}, "8": {"stimulus": 12, "trial": 8, "rt": 979}}, "generalization": {"56": {"stimulus": 58, "trial": 56, "rt": 1120, "response": "Alpha"}, "77": {"stimulus": 54, "trial": 77, "rt": 336, "response": "Alpha"}, "54": {"stimulus": 19, "trial": 54, "rt": 571, "response": "Beta"}, "42": {"stimulus": 32, "trial": 42, "rt": 556, "response": "Alpha"}, "48": {"stimulus": 65, "trial": 48, "rt": 794, "response": "Beta"}, "43": {"stimulus": 16, "trial": 43, "rt": 917, "response": "Alpha"}, "60": {"stimulus": 8, "trial": 60, "rt": 1938, "response": "Beta"}, "61": {"stimulus": 4, "trial": 61, "rt": 3491, "response": "Alpha"}, "62": {"stimulus": 68, "trial": 62, "rt": 2826, "response": "Alpha"}, "63": {"stimulus": 27, "trial": 63, "rt": 1199, "response": "Beta"}, "64": {"stimulus": 43, "trial": 64, "rt": 965, "response": "Alpha"}, "49": {"stimulus": 26, "trial": 49, "rt": 1312, "response": "Beta"}, "66": {"stimulus": 3, "trial": 66, "rt": 1714, "response": "Alpha"}, "67": {"stimulus": 74, "trial": 67, "rt": 21569, "response": "Alpha"}, "68": {"stimulus": 41, "trial": 68, "rt": 1030, "response": "Alpha"}, "69": {"stimulus": 30, "trial": 69, "rt": 521, "response": "Alpha"}, "80": {"stimulus": 29, "trial": 80, "rt": 1111, "response": "Beta"}, "52": {"stimulus": 37, "trial": 52, "rt": 848, "response": "Beta"}, "53": {"stimulus": 46, "trial": 53, "rt": 648, "response": "Beta"}, "24": {"stimulus": 79, "trial": 24, "rt": 780, "response": "Alpha"}, "25": {"stimulus": 34, "trial": 25, "rt": 1044, "response": "Alpha"}, "26": {"stimulus": 36, "trial": 26, "rt": 1163, "response": "Beta"}, "27": {"stimulus": 44, "trial": 27, "rt": 2136, "response": "Beta"}, "20": {"stimulus": 69, "trial": 20, "rt": 762, "response": "Alpha"}, "21": {"stimulus": 57, "trial": 21, "rt": 2223, "response": "Beta"}, "22": {"stimulus": 67, "trial": 22, "rt": 742, "response": "Alpha"}, "23": {"stimulus": 61, "trial": 23, "rt": 3826, "response": "Alpha"}, "46": {"stimulus": 66, "trial": 46, "rt": 1866, "response": "Alpha"}, "47": {"stimulus": 15, "trial": 47, "rt": 1195, "response": "Alpha"}, "44": {"stimulus": 50, "trial": 44, "rt": 674, "response": "Alpha"}, "45": {"stimulus": 39, "trial": 45, "rt": 544, "response": "Alpha"}, "28": {"stimulus": 71, "trial": 28, "rt": 1222, "response": "Beta"}, "29": {"stimulus": 14, "trial": 29, "rt": 1163, "response": "Alpha"}, "40": {"stimulus": 22, "trial": 40, "rt": 1064, "response": "Alpha"}, "41": {"stimulus": 70, "trial": 41, "rt": 563, "response": "Alpha"}, "1": {"stimulus": 73, "trial": 1, "rt": 1070, "response": "Beta"}, "0": {"stimulus": 77, "trial": 0, "rt": 2918, "response": "Alpha"}, "3": {"stimulus": 51, "trial": 3, "rt": 1025, "response": "Alpha"}, "2": {"stimulus": 5, "trial": 2, "rt": 835, "response": "Alpha"}, "5": {"stimulus": 40, "trial": 5, "rt": 973, "response": "Alpha"}, "4": {"stimulus": 48, "trial": 4, "rt": 896, "response": "Alpha"}, "7": {"stimulus": 6, "trial": 7, "rt": 865, "response": "Alpha"}, "6": {"stimulus": 9, "trial": 6, "rt": 771, "response": "Beta"}, "9": {"stimulus": 33, "trial": 9, "rt": 577, "response": "Alpha"}, "8": {"stimulus": 1, "trial": 8, "rt": 813, "response": "Beta"}, "78": {"stimulus": 75, "trial": 78, "rt": 281, "response": "Beta"}, "51": {"stimulus": 23, "trial": 51, "rt": 783, "response": "Alpha"}, "39": {"stimulus": 52, "trial": 39, "rt": 728, "response": "Beta"}, "65": {"stimulus": 10, "trial": 65, "rt": 894, "response": "Beta"}, "76": {"stimulus": 64, "trial": 76, "rt": 265, "response": "Beta"}, "75": {"stimulus": 12, "trial": 75, "rt": 714, "response": "Alpha"}, "38": {"stimulus": 35, "trial": 38, "rt": 1182, "response": "Beta"}, "73": {"stimulus": 31, "trial": 73, "rt": 27688, "response": "Beta"}, "72": {"stimulus": 17, "trial": 72, "rt": 1392, "response": "Beta"}, "71": {"stimulus": 76, "trial": 71, "rt": 724, "response": "Alpha"}, "70": {"stimulus": 47, "trial": 70, "rt": 1119, "response": "Beta"}, "59": {"stimulus": 18, "trial": 59, "rt": 750, "response": "Beta"}, "79": {"stimulus": 80, "trial": 79, "rt": 264, "response": "Beta"}, "58": {"stimulus": 63, "trial": 58, "rt": 809, "response": "Beta"}, "11": {"stimulus": 2, "trial": 11, "rt": 1476, "response": "Beta"}, "10": {"stimulus": 60, "trial": 10, "rt": 892, "response": "Alpha"}, "13": {"stimulus": 49, "trial": 13, "rt": 1227, "response": "Alpha"}, "12": {"stimulus": 28, "trial": 12, "rt": 710, "response": "Alpha"}, "15": {"stimulus": 56, "trial": 15, "rt": 2513, "response": "Beta"}, "14": {"stimulus": 7, "trial": 14, "rt": 984, "response": "Beta"}, "17": {"stimulus": 78, "trial": 17, "rt": 769, "response": "Alpha"}, "16": {"stimulus": 20, "trial": 16, "rt": 1109, "response": "Beta"}, "19": {"stimulus": 42, "trial": 19, "rt": 1067, "response": "Alpha"}, "18": {"stimulus": 21, "trial": 18, "rt": 850, "response": "Beta"}, "31": {"stimulus": 11, "trial": 31, "rt": 1219, "response": "Beta"}, "30": {"stimulus": 62, "trial": 30, "rt": 1334, "response": "Beta"}, "37": {"stimulus": 53, "trial": 37, "rt": 738, "response": "Alpha"}, "36": {"stimulus": 38, "trial": 36, "rt": 420, "response": "Beta"}, "35": {"stimulus": 45, "trial": 35, "rt": 441, "response": "Beta"}, "34": {"stimulus": 0, "trial": 34, "rt": 600, "response": "Beta"}, "33": {"stimulus": 55, "trial": 33, "rt": 1056, "response": "Beta"}, "55": {"stimulus": 25, "trial": 55, "rt": 857, "response": "Alpha"}, "74": {"stimulus": 59, "trial": 74, "rt": 877, "response": "Beta"}, "32": {"stimulus": 72, "trial": 32, "rt": 36161, "response": "Beta"}, "57": {"stimulus": 24, "trial": 57, "rt": 1401, "response": "Alpha"}, "50": {"stimulus": 13, "trial": 50, "rt": 1405, "response": "Alpha"}}}