{"generation": {"1": {"stimulus": 3, "trial": 1, "rt": 4300}, "0": {"stimulus": 0, "trial": 0, "rt": 15235}, "3": {"stimulus": 7, "trial": 3, "rt": 3402}, "2": {"stimulus": 5, "trial": 2, "rt": 4992}}, "info": {"finish": 1488823195154, "participant": 207, "exposed": true, "lab": false, "start": 1488822950049, "counterbalance": 7, "condition": "Row", "browser": {"platform": "Win32", "userAgent": "Mozilla/5.0 (Windows NT 10.0; WOW64) AppleWebKit/537.36 (KHTML, like Gecko) Chrome/56.0.2924.87 Safari/537.36"}}, "experiment": {"Paradigm": "TACL", "Stimuli": "Size-Color Squares", "Experiment": "Generating-Categories"}, "observation": {"11": {"stimulus": 16, "trial": 11, "rt": 678}, "10": {"stimulus": 14, "trial": 10, "rt": 816}, "1": {"stimulus": 12, "trial": 1, "rt": 22921}, "0": {"stimulus": 10, "trial": 0, "rt": 2362}, "3": {"stimulus": 14, "trial": 3, "rt": 1630}, "2": {"stimulus": 16, "trial": 2, "rt": 2364}, "5": {"stimulus": 14, "trial": 5, "rt": 1326}, "4": {"stimulus": 10, "trial": 4, "rt": 1958}, "7": {"stimulus": 12, "trial": 7, "rt": 948}, "6": {"stimulus": 16, "trial": 6, "rt": 1105}, "9": {"stimulus": 10, "trial": 9, "rt": 1101}, "8": {"stimulus": 12, "trial": 8, "rt": 1161}}, "generalization": {"56": {"stimulus": 48, "trial": 56, "rt": 1058, "response": "Alpha"}, "77": {"stimulus": 32, "trial": 77, "rt": 938, "response": "Beta"}, "54": {"stimulus": 76, "trial": 54, "rt": 750, "response": "Alpha"}, "42": {"stimulus": 55, "trial": 42, "rt": 784, "response": "Alpha"}, "48": {"stimulus": 42, "trial": 48, "rt": 820, "response": "Beta"}, "43": {"stimulus": 34, "trial": 43, "rt": 1844, "response": "Beta"}, "60": {"stimulus": 75, "trial": 60, "rt": 558, "response": "Beta"}, "61": {"stimulus": 21, "trial": 61, "rt": 1122, "response": "Beta"}, "62": {"stimulus": 2, "trial": 62, "rt": 1296, "response": "Beta"}, "63": {"stimulus": 73, "trial": 63, "rt": 792, "response": "Alpha"}, "64": {"stimulus": 35, "trial": 64, "rt": 1516, "response": "Beta"}, "49": {"stimulus": 65, "trial": 49, "rt": 875, "response": "Alpha"}, "66": {"stimulus": 26, "trial": 66, "rt": 872, "response": "Beta"}, "67": {"stimulus": 64, "trial": 67, "rt": 1640, "response": "Alpha"}, "68": {"stimulus": 27, "trial": 68, "rt": 1224, "response": "Beta"}, "69": {"stimulus": 12, "trial": 69, "rt": 974, "response": "Beta"}, "80": {"stimulus": 30, "trial": 80, "rt": 974, "response": "Beta"}, "52": {"stimulus": 43, "trial": 52, "rt": 733, "response": "Alpha"}, "53": {"stimulus": 11, "trial": 53, "rt": 940, "response": "Beta"}, "24": {"stimulus": 0, "trial": 24, "rt": 895, "response": "Beta"}, "25": {"stimulus": 50, "trial": 25, "rt": 1171, "response": "Alpha"}, "26": {"stimulus": 7, "trial": 26, "rt": 1224, "response": "Beta"}, "27": {"stimulus": 36, "trial": 27, "rt": 692, "response": "Alpha"}, "20": {"stimulus": 51, "trial": 20, "rt": 922, "response": "Alpha"}, "21": {"stimulus": 19, "trial": 21, "rt": 1070, "response": "Beta"}, "22": {"stimulus": 58, "trial": 22, "rt": 912, "response": "Alpha"}, "23": {"stimulus": 61, "trial": 23, "rt": 765, "response": "Alpha"}, "46": {"stimulus": 62, "trial": 46, "rt": 545, "response": "Alpha"}, "47": {"stimulus": 33, "trial": 47, "rt": 1007, "response": "Beta"}, "44": {"stimulus": 9, "trial": 44, "rt": 768, "response": "Beta"}, "45": {"stimulus": 71, "trial": 45, "rt": 820, "response": "Alpha"}, "28": {"stimulus": 13, "trial": 28, "rt": 858, "response": "Beta"}, "29": {"stimulus": 60, "trial": 29, "rt": 1052, "response": "Alpha"}, "40": {"stimulus": 49, "trial": 40, "rt": 525, "response": "Alpha"}, "41": {"stimulus": 25, "trial": 41, "rt": 909, "response": "Beta"}, "1": {"stimulus": 22, "trial": 1, "rt": 2204, "response": "Beta"}, "0": {"stimulus": 38, "trial": 0, "rt": 1647, "response": "Alpha"}, "3": {"stimulus": 63, "trial": 3, "rt": 1088, "response": "Alpha"}, "2": {"stimulus": 45, "trial": 2, "rt": 883, "response": "Alpha"}, "5": {"stimulus": 18, "trial": 5, "rt": 1527, "response": "Beta"}, "4": {"stimulus": 20, "trial": 4, "rt": 1167, "response": "Beta"}, "7": {"stimulus": 77, "trial": 7, "rt": 803, "response": "Alpha"}, "6": {"stimulus": 5, "trial": 6, "rt": 1327, "response": "Beta"}, "9": {"stimulus": 46, "trial": 9, "rt": 3213, "response": "Alpha"}, "8": {"stimulus": 15, "trial": 8, "rt": 830, "response": "Beta"}, "78": {"stimulus": 57, "trial": 78, "rt": 626, "response": "Alpha"}, "51": {"stimulus": 10, "trial": 51, "rt": 793, "response": "Beta"}, "39": {"stimulus": 74, "trial": 39, "rt": 600, "response": "Alpha"}, "65": {"stimulus": 44, "trial": 65, "rt": 1135, "response": "Alpha"}, "76": {"stimulus": 31, "trial": 76, "rt": 1462, "response": "Beta"}, "75": {"stimulus": 37, "trial": 75, "rt": 1402, "response": "Beta"}, "38": {"stimulus": 78, "trial": 38, "rt": 820, "response": "Alpha"}, "73": {"stimulus": 68, "trial": 73, "rt": 505, "response": "Alpha"}, "72": {"stimulus": 56, "trial": 72, "rt": 536, "response": "Alpha"}, "71": {"stimulus": 67, "trial": 71, "rt": 852, "response": "Alpha"}, "70": {"stimulus": 17, "trial": 70, "rt": 831, "response": "Beta"}, "59": {"stimulus": 23, "trial": 59, "rt": 1502, "response": "Alpha"}, "79": {"stimulus": 54, "trial": 79, "rt": 633, "response": "Alpha"}, "58": {"stimulus": 6, "trial": 58, "rt": 1001, "response": "Beta"}, "11": {"stimulus": 69, "trial": 11, "rt": 1218, "response": "Alpha"}, "10": {"stimulus": 40, "trial": 10, "rt": 1078, "response": "Alpha"}, "13": {"stimulus": 4, "trial": 13, "rt": 959, "response": "Beta"}, "12": {"stimulus": 1, "trial": 12, "rt": 805, "response": "Beta"}, "15": {"stimulus": 53, "trial": 15, "rt": 1164, "response": "Alpha"}, "14": {"stimulus": 66, "trial": 14, "rt": 753, "response": "Alpha"}, "17": {"stimulus": 39, "trial": 17, "rt": 1110, "response": "Alpha"}, "16": {"stimulus": 3, "trial": 16, "rt": 795, "response": "Beta"}, "19": {"stimulus": 72, "trial": 19, "rt": 843, "response": "Alpha"}, "18": {"stimulus": 59, "trial": 18, "rt": 771, "response": "Alpha"}, "31": {"stimulus": 47, "trial": 31, "rt": 788, "response": "Alpha"}, "30": {"stimulus": 70, "trial": 30, "rt": 1102, "response": "Alpha"}, "37": {"stimulus": 24, "trial": 37, "rt": 1675, "response": "Alpha"}, "36": {"stimulus": 28, "trial": 36, "rt": 980, "response": "Alpha"}, "35": {"stimulus": 52, "trial": 35, "rt": 774, "response": "Alpha"}, "34": {"stimulus": 8, "trial": 34, "rt": 821, "response": "Beta"}, "33": {"stimulus": 80, "trial": 33, "rt": 655, "response": "Alpha"}, "55": {"stimulus": 14, "trial": 55, "rt": 10587, "response": "Beta"}, "74": {"stimulus": 16, "trial": 74, "rt": 951, "response": "Beta"}, "32": {"stimulus": 41, "trial": 32, "rt": 1141, "response": "Alpha"}, "57": {"stimulus": 79, "trial": 57, "rt": 932, "response": "Alpha"}, "50": {"stimulus": 29, "trial": 50, "rt": 1437, "response": "Alpha"}}}