{"generation": {"1": {"stimulus": 75, "trial": 1, "rt": 3759}, "0": {"stimulus": 72, "trial": 0, "rt": 16459}, "3": {"stimulus": 69, "trial": 3, "rt": 7247}, "2": {"stimulus": 76, "trial": 2, "rt": 5886}}, "info": {"finish": 1488823213500, "participant": 209, "exposed": true, "lab": false, "start": 1488822963818, "counterbalance": 2, "condition": "Row", "browser": {"platform": "Win32", "userAgent": "Mozilla/5.0 (Windows NT 10.0; Win64; x64) AppleWebKit/537.36 (KHTML, like Gecko) Chrome/56.0.2924.87 Safari/537.36"}}, "experiment": {"Paradigm": "TACL", "Stimuli": "Size-Color Squares", "Experiment": "Generating-Categories"}, "observation": {"11": {"stimulus": 16, "trial": 11, "rt": 1276}, "10": {"stimulus": 14, "trial": 10, "rt": 1480}, "1": {"stimulus": 12, "trial": 1, "rt": 2377}, "0": {"stimulus": 16, "trial": 0, "rt": 2776}, "3": {"stimulus": 10, "trial": 3, "rt": 1296}, "2": {"stimulus": 14, "trial": 2, "rt": 1472}, "5": {"stimulus": 16, "trial": 5, "rt": 1273}, "4": {"stimulus": 12, "trial": 4, "rt": 1120}, "7": {"stimulus": 10, "trial": 7, "rt": 824}, "6": {"stimulus": 14, "trial": 6, "rt": 775}, "9": {"stimulus": 12, "trial": 9, "rt": 1173}, "8": {"stimulus": 10, "trial": 8, "rt": 1163}}, "generalization": {"56": {"stimulus": 36, "trial": 56, "rt": 874, "response": "Beta"}, "77": {"stimulus": 75, "trial": 77, "rt": 1081, "response": "Beta"}, "54": {"stimulus": 59, "trial": 54, "rt": 1480, "response": "Beta"}, "42": {"stimulus": 80, "trial": 42, "rt": 702, "response": "Beta"}, "48": {"stimulus": 45, "trial": 48, "rt": 1498, "response": "Beta"}, "43": {"stimulus": 2, "trial": 43, "rt": 1120, "response": "Alpha"}, "60": {"stimulus": 66, "trial": 60, "rt": 688, "response": "Beta"}, "61": {"stimulus": 76, "trial": 61, "rt": 659, "response": "Beta"}, "62": {"stimulus": 73, "trial": 62, "rt": 625, "response": "Beta"}, "63": {"stimulus": 38, "trial": 63, "rt": 933, "response": "Beta"}, "64": {"stimulus": 70, "trial": 64, "rt": 714, "response": "Beta"}, "49": {"stimulus": 62, "trial": 49, "rt": 1231, "response": "Beta"}, "66": {"stimulus": 17, "trial": 66, "rt": 1040, "response": "Alpha"}, "67": {"stimulus": 56, "trial": 67, "rt": 1138, "response": "Beta"}, "68": {"stimulus": 9, "trial": 68, "rt": 269, "response": "Beta"}, "69": {"stimulus": 67, "trial": 69, "rt": 2348, "response": "Beta"}, "80": {"stimulus": 16, "trial": 80, "rt": 550, "response": "Alpha"}, "52": {"stimulus": 4, "trial": 52, "rt": 4516, "response": "Alpha"}, "53": {"stimulus": 0, "trial": 53, "rt": 842, "response": "Alpha"}, "24": {"stimulus": 42, "trial": 24, "rt": 929, "response": "Beta"}, "25": {"stimulus": 6, "trial": 25, "rt": 1138, "response": "Alpha"}, "26": {"stimulus": 24, "trial": 26, "rt": 693, "response": "Alpha"}, "27": {"stimulus": 22, "trial": 27, "rt": 700, "response": "Alpha"}, "20": {"stimulus": 13, "trial": 20, "rt": 1352, "response": "Alpha"}, "21": {"stimulus": 33, "trial": 21, "rt": 4640, "response": "Beta"}, "22": {"stimulus": 12, "trial": 22, "rt": 1547, "response": "Alpha"}, "23": {"stimulus": 37, "trial": 23, "rt": 1322, "response": "Beta"}, "46": {"stimulus": 26, "trial": 46, "rt": 1113, "response": "Alpha"}, "47": {"stimulus": 11, "trial": 47, "rt": 661, "response": "Alpha"}, "44": {"stimulus": 51, "trial": 44, "rt": 1052, "response": "Beta"}, "45": {"stimulus": 58, "trial": 45, "rt": 766, "response": "Beta"}, "28": {"stimulus": 39, "trial": 28, "rt": 1360, "response": "Beta"}, "29": {"stimulus": 7, "trial": 29, "rt": 1031, "response": "Alpha"}, "40": {"stimulus": 3, "trial": 40, "rt": 1020, "response": "Alpha"}, "41": {"stimulus": 61, "trial": 41, "rt": 1387, "response": "Beta"}, "1": {"stimulus": 68, "trial": 1, "rt": 1260, "response": "Beta"}, "0": {"stimulus": 23, "trial": 0, "rt": 1788, "response": "Alpha"}, "3": {"stimulus": 43, "trial": 3, "rt": 1391, "response": "Beta"}, "2": {"stimulus": 60, "trial": 2, "rt": 737, "response": "Beta"}, "5": {"stimulus": 63, "trial": 5, "rt": 1149, "response": "Beta"}, "4": {"stimulus": 18, "trial": 4, "rt": 1342, "response": "Alpha"}, "7": {"stimulus": 35, "trial": 7, "rt": 1071, "response": "Alpha"}, "6": {"stimulus": 49, "trial": 6, "rt": 835, "response": "Beta"}, "9": {"stimulus": 77, "trial": 9, "rt": 1337, "response": "Beta"}, "8": {"stimulus": 34, "trial": 8, "rt": 3019, "response": "Beta"}, "78": {"stimulus": 5, "trial": 78, "rt": 1033, "response": "Alpha"}, "51": {"stimulus": 8, "trial": 51, "rt": 258, "response": "Beta"}, "39": {"stimulus": 79, "trial": 39, "rt": 745, "response": "Beta"}, "65": {"stimulus": 57, "trial": 65, "rt": 701, "response": "Beta"}, "76": {"stimulus": 54, "trial": 76, "rt": 663, "response": "Beta"}, "75": {"stimulus": 44, "trial": 75, "rt": 884, "response": "Beta"}, "38": {"stimulus": 65, "trial": 38, "rt": 943, "response": "Beta"}, "73": {"stimulus": 32, "trial": 73, "rt": 1954, "response": "Beta"}, "72": {"stimulus": 64, "trial": 72, "rt": 1005, "response": "Beta"}, "71": {"stimulus": 19, "trial": 71, "rt": 990, "response": "Alpha"}, "70": {"stimulus": 48, "trial": 70, "rt": 1313, "response": "Beta"}, "59": {"stimulus": 47, "trial": 59, "rt": 853, "response": "Beta"}, "79": {"stimulus": 10, "trial": 79, "rt": 585, "response": "Alpha"}, "58": {"stimulus": 78, "trial": 58, "rt": 766, "response": "Beta"}, "11": {"stimulus": 46, "trial": 11, "rt": 852, "response": "Beta"}, "10": {"stimulus": 74, "trial": 10, "rt": 884, "response": "Beta"}, "13": {"stimulus": 1, "trial": 13, "rt": 1101, "response": "Alpha"}, "12": {"stimulus": 40, "trial": 12, "rt": 1051, "response": "Beta"}, "15": {"stimulus": 20, "trial": 15, "rt": 1069, "response": "Alpha"}, "14": {"stimulus": 52, "trial": 14, "rt": 1485, "response": "Beta"}, "17": {"stimulus": 71, "trial": 17, "rt": 1374, "response": "Beta"}, "16": {"stimulus": 15, "trial": 16, "rt": 1228, "response": "Alpha"}, "19": {"stimulus": 53, "trial": 19, "rt": 715, "response": "Beta"}, "18": {"stimulus": 30, "trial": 18, "rt": 1789, "response": "Beta"}, "31": {"stimulus": 25, "trial": 31, "rt": 695, "response": "Alpha"}, "30": {"stimulus": 21, "trial": 30, "rt": 687, "response": "Alpha"}, "37": {"stimulus": 55, "trial": 37, "rt": 704, "response": "Beta"}, "36": {"stimulus": 41, "trial": 36, "rt": 1121, "response": "Beta"}, "35": {"stimulus": 14, "trial": 35, "rt": 1129, "response": "Alpha"}, "34": {"stimulus": 50, "trial": 34, "rt": 819, "response": "Beta"}, "33": {"stimulus": 31, "trial": 33, "rt": 1240, "response": "Beta"}, "55": {"stimulus": 72, "trial": 55, "rt": 983, "response": "Beta"}, "74": {"stimulus": 29, "trial": 74, "rt": 944, "response": "Beta"}, "32": {"stimulus": 69, "trial": 32, "rt": 1328, "response": "Beta"}, "57": {"stimulus": 28, "trial": 57, "rt": 927, "response": "Beta"}, "50": {"stimulus": 27, "trial": 50, "rt": 5928, "response": "Beta"}}}