{"generation": {"1": {"stimulus": 0, "trial": 1, "rt": 6643}, "0": {"stimulus": 72, "trial": 0, "rt": 11810}, "3": {"stimulus": 63, "trial": 3, "rt": 5234}, "2": {"stimulus": 9, "trial": 2, "rt": 5506}}, "info": {"finish": 1488824081410, "participant": 210, "exposed": true, "lab": false, "start": 1488822968910, "counterbalance": 2, "condition": "Cluster", "browser": {"platform": "Win32", "userAgent": "Mozilla/5.0 (Windows NT 10.0; Win64; x64) AppleWebKit/537.36 (KHTML, like Gecko) Chrome/55.0.2883.87 Safari/537.36"}}, "experiment": {"Paradigm": "TACL", "Stimuli": "Size-Color Squares", "Experiment": "Generating-Categories"}, "observation": {"11": {"stimulus": 32, "trial": 11, "rt": 1066}, "10": {"stimulus": 34, "trial": 10, "rt": 1075}, "1": {"stimulus": 32, "trial": 1, "rt": 1970}, "0": {"stimulus": 16, "trial": 0, "rt": 2208}, "3": {"stimulus": 34, "trial": 3, "rt": 1236}, "2": {"stimulus": 14, "trial": 2, "rt": 1459}, "5": {"stimulus": 32, "trial": 5, "rt": 1067}, "4": {"stimulus": 14, "trial": 4, "rt": 1307}, "7": {"stimulus": 16, "trial": 7, "rt": 1123}, "6": {"stimulus": 34, "trial": 6, "rt": 1090}, "9": {"stimulus": 14, "trial": 9, "rt": 1371}, "8": {"stimulus": 16, "trial": 8, "rt": 1027}}, "generalization": {"56": {"stimulus": 53, "trial": 56, "rt": 915, "response": "Alpha"}, "77": {"stimulus": 19, "trial": 77, "rt": 834, "response": "Beta"}, "54": {"stimulus": 38, "trial": 54, "rt": 1042, "response": "Beta"}, "42": {"stimulus": 56, "trial": 42, "rt": 834, "response": "Beta"}, "48": {"stimulus": 27, "trial": 48, "rt": 851, "response": "Beta"}, "43": {"stimulus": 57, "trial": 43, "rt": 659, "response": "Beta"}, "60": {"stimulus": 29, "trial": 60, "rt": 844, "response": "Beta"}, "61": {"stimulus": 1, "trial": 61, "rt": 723, "response": "Beta"}, "62": {"stimulus": 71, "trial": 62, "rt": 755, "response": "Alpha"}, "63": {"stimulus": 74, "trial": 63, "rt": 1602, "response": "Beta"}, "64": {"stimulus": 72, "trial": 64, "rt": 707, "response": "Beta"}, "49": {"stimulus": 20, "trial": 49, "rt": 754, "response": "Beta"}, "66": {"stimulus": 4, "trial": 66, "rt": 722, "response": "Beta"}, "67": {"stimulus": 77, "trial": 67, "rt": 2188, "response": "Alpha"}, "68": {"stimulus": 26, "trial": 68, "rt": 546, "response": "Alpha"}, "69": {"stimulus": 8, "trial": 69, "rt": 483, "response": "Alpha"}, "80": {"stimulus": 35, "trial": 80, "rt": 979, "response": "Alpha"}, "52": {"stimulus": 75, "trial": 52, "rt": 651, "response": "Beta"}, "53": {"stimulus": 60, "trial": 53, "rt": 795, "response": "Alpha"}, "24": {"stimulus": 46, "trial": 24, "rt": 627, "response": "Beta"}, "25": {"stimulus": 50, "trial": 25, "rt": 1130, "response": "Alpha"}, "26": {"stimulus": 54, "trial": 26, "rt": 1099, "response": "Beta"}, "27": {"stimulus": 65, "trial": 27, "rt": 1083, "response": "Beta"}, "20": {"stimulus": 31, "trial": 20, "rt": 2514, "response": "Alpha"}, "21": {"stimulus": 76, "trial": 21, "rt": 1490, "response": "Alpha"}, "22": {"stimulus": 30, "trial": 22, "rt": 1282, "response": "Beta"}, "23": {"stimulus": 39, "trial": 23, "rt": 530, "response": "Beta"}, "46": {"stimulus": 16, "trial": 46, "rt": 859, "response": "Alpha"}, "47": {"stimulus": 44, "trial": 47, "rt": 603, "response": "Alpha"}, "44": {"stimulus": 18, "trial": 44, "rt": 787, "response": "Beta"}, "45": {"stimulus": 48, "trial": 45, "rt": 1387, "response": "Beta"}, "28": {"stimulus": 41, "trial": 28, "rt": 907, "response": "Alpha"}, "29": {"stimulus": 66, "trial": 29, "rt": 2578, "response": "Beta"}, "40": {"stimulus": 17, "trial": 40, "rt": 924, "response": "Alpha"}, "41": {"stimulus": 37, "trial": 41, "rt": 979, "response": "Beta"}, "1": {"stimulus": 6, "trial": 1, "rt": 2307, "response": "Alpha"}, "0": {"stimulus": 79, "trial": 0, "rt": 3090, "response": "Alpha"}, "3": {"stimulus": 64, "trial": 3, "rt": 1067, "response": "Beta"}, "2": {"stimulus": 49, "trial": 2, "rt": 3227, "response": "Beta"}, "5": {"stimulus": 47, "trial": 5, "rt": 866, "response": "Beta"}, "4": {"stimulus": 25, "trial": 4, "rt": 859, "response": "Alpha"}, "7": {"stimulus": 2, "trial": 7, "rt": 1003, "response": "Beta"}, "6": {"stimulus": 32, "trial": 6, "rt": 1499, "response": "Alpha"}, "9": {"stimulus": 10, "trial": 9, "rt": 618, "response": "Beta"}, "8": {"stimulus": 43, "trial": 8, "rt": 1051, "response": "Alpha"}, "78": {"stimulus": 23, "trial": 78, "rt": 1996, "response": "Alpha"}, "51": {"stimulus": 21, "trial": 51, "rt": 931, "response": "Alpha"}, "39": {"stimulus": 55, "trial": 39, "rt": 643, "response": "Beta"}, "65": {"stimulus": 58, "trial": 65, "rt": 1459, "response": "Beta"}, "76": {"stimulus": 61, "trial": 76, "rt": 850, "response": "Alpha"}, "75": {"stimulus": 9, "trial": 75, "rt": 593, "response": "Beta"}, "38": {"stimulus": 67, "trial": 38, "rt": 577, "response": "Alpha"}, "73": {"stimulus": 36, "trial": 73, "rt": 763, "response": "Beta"}, "72": {"stimulus": 62, "trial": 72, "rt": 546, "response": "Alpha"}, "71": {"stimulus": 51, "trial": 71, "rt": 867, "response": "Alpha"}, "70": {"stimulus": 11, "trial": 70, "rt": 827, "response": "Beta"}, "59": {"stimulus": 24, "trial": 59, "rt": 771, "response": "Alpha"}, "79": {"stimulus": 7, "trial": 79, "rt": 1155, "response": "Alpha"}, "58": {"stimulus": 68, "trial": 58, "rt": 1395, "response": "Beta"}, "11": {"stimulus": 78, "trial": 11, "rt": 707, "response": "Alpha"}, "10": {"stimulus": 40, "trial": 10, "rt": 1387, "response": "Beta"}, "13": {"stimulus": 12, "trial": 13, "rt": 1083, "response": "Beta"}, "12": {"stimulus": 22, "trial": 12, "rt": 1459, "response": "Beta"}, "15": {"stimulus": 52, "trial": 15, "rt": 618, "response": "Alpha"}, "14": {"stimulus": 63, "trial": 14, "rt": 1019, "response": "Beta"}, "17": {"stimulus": 0, "trial": 17, "rt": 779, "response": "Beta"}, "16": {"stimulus": 33, "trial": 16, "rt": 923, "response": "Alpha"}, "19": {"stimulus": 59, "trial": 19, "rt": 890, "response": "Alpha"}, "18": {"stimulus": 80, "trial": 18, "rt": 612, "response": "Alpha"}, "31": {"stimulus": 14, "trial": 31, "rt": 563, "response": "Alpha"}, "30": {"stimulus": 34, "trial": 30, "rt": 866, "response": "Alpha"}, "37": {"stimulus": 5, "trial": 37, "rt": 563, "response": "Alpha"}, "36": {"stimulus": 69, "trial": 36, "rt": 603, "response": "Alpha"}, "35": {"stimulus": 15, "trial": 35, "rt": 618, "response": "Alpha"}, "34": {"stimulus": 42, "trial": 34, "rt": 851, "response": "Alpha"}, "33": {"stimulus": 28, "trial": 33, "rt": 691, "response": "Beta"}, "55": {"stimulus": 13, "trial": 55, "rt": 618, "response": "Beta"}, "74": {"stimulus": 3, "trial": 74, "rt": 578, "response": "Beta"}, "32": {"stimulus": 73, "trial": 32, "rt": 971, "response": "Beta"}, "57": {"stimulus": 70, "trial": 57, "rt": 539, "response": "Alpha"}, "50": {"stimulus": 45, "trial": 50, "rt": 571, "response": "Beta"}}}