{"generation": {"1": {"stimulus": 4, "trial": 1, "rt": 7831}, "0": {"stimulus": 11, "trial": 0, "rt": 17417}, "3": {"stimulus": 51, "trial": 3, "rt": 14499}, "2": {"stimulus": 7, "trial": 2, "rt": 5930}}, "info": {"participant": 211, "exposed": true, "lab": false, "start": 1488822971431, "counterbalance": 6, "condition": "Cluster", "browser": {"platform": "Win32", "userAgent": "Mozilla/5.0 (Windows NT 6.1; WOW64; rv:51.0) Gecko/20100101 Firefox/51.0"}}, "experiment": {"Paradigm": "TACL", "Stimuli": "Size-Color Squares", "Experiment": "Generating-Categories"}, "observation": {"11": {"stimulus": 14, "trial": 11, "rt": 1379}, "10": {"stimulus": 32, "trial": 10, "rt": 2659}, "1": {"stimulus": 16, "trial": 1, "rt": 4576}, "0": {"stimulus": 32, "trial": 0, "rt": 11758}, "3": {"stimulus": 34, "trial": 3, "rt": 1872}, "2": {"stimulus": 14, "trial": 2, "rt": 2068}, "5": {"stimulus": 32, "trial": 5, "rt": 1401}, "4": {"stimulus": 16, "trial": 4, "rt": 3543}, "7": {"stimulus": 14, "trial": 7, "rt": 1461}, "6": {"stimulus": 34, "trial": 6, "rt": 5252}, "9": {"stimulus": 16, "trial": 9, "rt": 2480}, "8": {"stimulus": 34, "trial": 8, "rt": 2243}}, "generalization": {"56": {"stimulus": 50, "trial": 56, "rt": 847, "response": "Alpha"}, "77": {"stimulus": 38, "trial": 77, "rt": 968, "response": "Alpha"}, "54": {"stimulus": 31, "trial": 54, "rt": 849, "response": "Alpha"}, "42": {"stimulus": 46, "trial": 42, "rt": 1125, "response": "Beta"}, "48": {"stimulus": 22, "trial": 48, "rt": 1088, "response": "Alpha"}, "43": {"stimulus": 15, "trial": 43, "rt": 1694, "response": "Alpha"}, "60": {"stimulus": 6, "trial": 60, "rt": 831, "response": "Alpha"}, "61": {"stimulus": 75, "trial": 61, "rt": 791, "response": "Alpha"}, "62": {"stimulus": 47, "trial": 62, "rt": 1463, "response": "Alpha"}, "63": {"stimulus": 62, "trial": 63, "rt": 1113, "response": "Alpha"}, "64": {"stimulus": 23, "trial": 64, "rt": 597, "response": "Alpha"}, "49": {"stimulus": 43, "trial": 49, "rt": 1311, "response": "Alpha"}, "66": {"stimulus": 34, "trial": 66, "rt": 1107, "response": "Alpha"}, "67": {"stimulus": 60, "trial": 67, "rt": 698, "response": "Alpha"}, "68": {"stimulus": 53, "trial": 68, "rt": 1124, "response": "Alpha"}, "69": {"stimulus": 41, "trial": 69, "rt": 793, "response": "Beta"}, "80": {"stimulus": 56, "trial": 80, "rt": 1123, "response": "Beta"}, "52": {"stimulus": 37, "trial": 52, "rt": 848, "response": "Beta"}, "53": {"stimulus": 36, "trial": 53, "rt": 726, "response": "Beta"}, "24": {"stimulus": 71, "trial": 24, "rt": 1434, "response": "Alpha"}, "25": {"stimulus": 11, "trial": 25, "rt": 808, "response": "Beta"}, "26": {"stimulus": 21, "trial": 26, "rt": 698, "response": "Beta"}, "27": {"stimulus": 30, "trial": 27, "rt": 694, "response": "Beta"}, "20": {"stimulus": 42, "trial": 20, "rt": 767, "response": "Alpha"}, "21": {"stimulus": 35, "trial": 21, "rt": 755, "response": "Alpha"}, "22": {"stimulus": 17, "trial": 22, "rt": 662, "response": "Alpha"}, "23": {"stimulus": 18, "trial": 23, "rt": 801, "response": "Beta"}, "46": {"stimulus": 54, "trial": 46, "rt": 807, "response": "Beta"}, "47": {"stimulus": 70, "trial": 47, "rt": 822, "response": "Alpha"}, "44": {"stimulus": 77, "trial": 44, "rt": 1105, "response": "Alpha"}, "45": {"stimulus": 27, "trial": 45, "rt": 1210, "response": "Beta"}, "28": {"stimulus": 12, "trial": 28, "rt": 1376, "response": "Beta"}, "29": {"stimulus": 57, "trial": 29, "rt": 4355, "response": "Alpha"}, "40": {"stimulus": 9, "trial": 40, "rt": 1606, "response": "Beta"}, "41": {"stimulus": 66, "trial": 41, "rt": 1210, "response": "Alpha"}, "1": {"stimulus": 51, "trial": 1, "rt": 2096, "response": "Alpha"}, "0": {"stimulus": 80, "trial": 0, "rt": 2467, "response": "Beta"}, "3": {"stimulus": 7, "trial": 3, "rt": 1252, "response": "Beta"}, "2": {"stimulus": 33, "trial": 2, "rt": 1617, "response": "Beta"}, "5": {"stimulus": 8, "trial": 5, "rt": 1304, "response": "Alpha"}, "4": {"stimulus": 59, "trial": 4, "rt": 1013, "response": "Alpha"}, "7": {"stimulus": 44, "trial": 7, "rt": 1180, "response": "Alpha"}, "6": {"stimulus": 16, "trial": 6, "rt": 2918, "response": "Alpha"}, "9": {"stimulus": 4, "trial": 9, "rt": 2704, "response": "Alpha"}, "8": {"stimulus": 49, "trial": 8, "rt": 2136, "response": "Beta"}, "78": {"stimulus": 73, "trial": 78, "rt": 685, "response": "Beta"}, "51": {"stimulus": 39, "trial": 51, "rt": 1274, "response": "Alpha"}, "39": {"stimulus": 52, "trial": 39, "rt": 515, "response": "Alpha"}, "65": {"stimulus": 14, "trial": 65, "rt": 619, "response": "Alpha"}, "76": {"stimulus": 3, "trial": 76, "rt": 668, "response": "Alpha"}, "75": {"stimulus": 29, "trial": 75, "rt": 1372, "response": "Alpha"}, "38": {"stimulus": 74, "trial": 38, "rt": 911, "response": "Beta"}, "73": {"stimulus": 79, "trial": 73, "rt": 1234, "response": "Alpha"}, "72": {"stimulus": 55, "trial": 72, "rt": 762, "response": "Beta"}, "71": {"stimulus": 68, "trial": 71, "rt": 2289, "response": "Beta"}, "70": {"stimulus": 24, "trial": 70, "rt": 2208, "response": "Alpha"}, "59": {"stimulus": 19, "trial": 59, "rt": 1056, "response": "Beta"}, "79": {"stimulus": 26, "trial": 79, "rt": 870, "response": "Alpha"}, "58": {"stimulus": 61, "trial": 58, "rt": 1113, "response": "Alpha"}, "11": {"stimulus": 72, "trial": 11, "rt": 1096, "response": "Beta"}, "10": {"stimulus": 20, "trial": 10, "rt": 1896, "response": "Beta"}, "13": {"stimulus": 45, "trial": 13, "rt": 568, "response": "Beta"}, "12": {"stimulus": 63, "trial": 12, "rt": 812, "response": "Beta"}, "15": {"stimulus": 40, "trial": 15, "rt": 1109, "response": "Alpha"}, "14": {"stimulus": 1, "trial": 14, "rt": 693, "response": "Beta"}, "17": {"stimulus": 2, "trial": 17, "rt": 877, "response": "Beta"}, "16": {"stimulus": 69, "trial": 16, "rt": 678, "response": "Alpha"}, "19": {"stimulus": 67, "trial": 19, "rt": 778, "response": "Alpha"}, "18": {"stimulus": 13, "trial": 18, "rt": 917, "response": "Alpha"}, "31": {"stimulus": 5, "trial": 31, "rt": 1452, "response": "Alpha"}, "30": {"stimulus": 0, "trial": 30, "rt": 949, "response": "Beta"}, "37": {"stimulus": 32, "trial": 37, "rt": 860, "response": "Alpha"}, "36": {"stimulus": 10, "trial": 36, "rt": 925, "response": "Beta"}, "35": {"stimulus": 58, "trial": 35, "rt": 671, "response": "Alpha"}, "34": {"stimulus": 76, "trial": 34, "rt": 1406, "response": "Alpha"}, "33": {"stimulus": 65, "trial": 33, "rt": 821, "response": "Beta"}, "55": {"stimulus": 64, "trial": 55, "rt": 865, "response": "Beta"}, "74": {"stimulus": 25, "trial": 74, "rt": 832, "response": "Alpha"}, "32": {"stimulus": 28, "trial": 32, "rt": 2126, "response": "Beta"}, "57": {"stimulus": 48, "trial": 57, "rt": 546, "response": "Alpha"}, "50": {"stimulus": 78, "trial": 50, "rt": 11924, "response": "Alpha"}}}