{"generation": {"1": {"stimulus": 79, "trial": 1, "rt": 10507}, "0": {"stimulus": 71, "trial": 0, "rt": 17915}, "3": {"stimulus": 80, "trial": 3, "rt": 7028}, "2": {"stimulus": 72, "trial": 2, "rt": 9290}}, "info": {"finish": 1488823287985, "participant": 212, "exposed": true, "lab": false, "start": 1488822975157, "counterbalance": 6, "condition": "Cluster", "browser": {"platform": "Win32", "userAgent": "Mozilla/5.0 (Windows NT 10.0; Win64; x64) AppleWebKit/537.36 (KHTML, like Gecko) Chrome/56.0.2924.87 Safari/537.36"}}, "experiment": {"Paradigm": "TACL", "Stimuli": "Size-Color Squares", "Experiment": "Generating-Categories"}, "observation": {"11": {"stimulus": 14, "trial": 11, "rt": 1286}, "10": {"stimulus": 16, "trial": 10, "rt": 4479}, "1": {"stimulus": 32, "trial": 1, "rt": 7291}, "0": {"stimulus": 16, "trial": 0, "rt": 19596}, "3": {"stimulus": 34, "trial": 3, "rt": 2265}, "2": {"stimulus": 14, "trial": 2, "rt": 2409}, "5": {"stimulus": 32, "trial": 5, "rt": 1246}, "4": {"stimulus": 14, "trial": 4, "rt": 1556}, "7": {"stimulus": 34, "trial": 7, "rt": 1246}, "6": {"stimulus": 16, "trial": 6, "rt": 1305}, "9": {"stimulus": 34, "trial": 9, "rt": 1148}, "8": {"stimulus": 32, "trial": 8, "rt": 1379}}, "generalization": {"56": {"stimulus": 73, "trial": 56, "rt": 1282, "response": "Beta"}, "77": {"stimulus": 18, "trial": 77, "rt": 1041, "response": "Alpha"}, "54": {"stimulus": 0, "trial": 54, "rt": 659, "response": "Alpha"}, "42": {"stimulus": 14, "trial": 42, "rt": 734, "response": "Alpha"}, "48": {"stimulus": 71, "trial": 48, "rt": 999, "response": "Beta"}, "43": {"stimulus": 50, "trial": 43, "rt": 921, "response": "Alpha"}, "60": {"stimulus": 44, "trial": 60, "rt": 1048, "response": "Alpha"}, "61": {"stimulus": 11, "trial": 61, "rt": 713, "response": "Alpha"}, "62": {"stimulus": 66, "trial": 62, "rt": 1016, "response": "Beta"}, "63": {"stimulus": 36, "trial": 63, "rt": 877, "response": "Alpha"}, "64": {"stimulus": 72, "trial": 64, "rt": 1024, "response": "Beta"}, "49": {"stimulus": 55, "trial": 49, "rt": 889, "response": "Beta"}, "66": {"stimulus": 4, "trial": 66, "rt": 874, "response": "Alpha"}, "67": {"stimulus": 7, "trial": 67, "rt": 886, "response": "Alpha"}, "68": {"stimulus": 33, "trial": 68, "rt": 683, "response": "Alpha"}, "69": {"stimulus": 22, "trial": 69, "rt": 667, "response": "Alpha"}, "80": {"stimulus": 29, "trial": 80, "rt": 1240, "response": "Alpha"}, "52": {"stimulus": 27, "trial": 52, "rt": 706, "response": "Alpha"}, "53": {"stimulus": 13, "trial": 53, "rt": 668, "response": "Alpha"}, "24": {"stimulus": 20, "trial": 24, "rt": 898, "response": "Alpha"}, "25": {"stimulus": 75, "trial": 25, "rt": 1219, "response": "Beta"}, "26": {"stimulus": 3, "trial": 26, "rt": 906, "response": "Alpha"}, "27": {"stimulus": 65, "trial": 27, "rt": 1106, "response": "Beta"}, "20": {"stimulus": 26, "trial": 20, "rt": 765, "response": "Alpha"}, "21": {"stimulus": 68, "trial": 21, "rt": 1354, "response": "Beta"}, "22": {"stimulus": 9, "trial": 22, "rt": 987, "response": "Alpha"}, "23": {"stimulus": 77, "trial": 23, "rt": 1000, "response": "Beta"}, "46": {"stimulus": 79, "trial": 46, "rt": 963, "response": "Beta"}, "47": {"stimulus": 12, "trial": 47, "rt": 1020, "response": "Alpha"}, "44": {"stimulus": 1, "trial": 44, "rt": 747, "response": "Alpha"}, "45": {"stimulus": 35, "trial": 45, "rt": 754, "response": "Alpha"}, "28": {"stimulus": 59, "trial": 28, "rt": 1180, "response": "Beta"}, "29": {"stimulus": 54, "trial": 29, "rt": 2191, "response": "Beta"}, "40": {"stimulus": 80, "trial": 40, "rt": 969, "response": "Beta"}, "41": {"stimulus": 34, "trial": 41, "rt": 1300, "response": "Alpha"}, "1": {"stimulus": 51, "trial": 1, "rt": 3181, "response": "Alpha"}, "0": {"stimulus": 28, "trial": 0, "rt": 2360, "response": "Alpha"}, "3": {"stimulus": 70, "trial": 3, "rt": 999, "response": "Beta"}, "2": {"stimulus": 60, "trial": 2, "rt": 1808, "response": "Beta"}, "5": {"stimulus": 39, "trial": 5, "rt": 1240, "response": "Alpha"}, "4": {"stimulus": 2, "trial": 4, "rt": 1202, "response": "Alpha"}, "7": {"stimulus": 5, "trial": 7, "rt": 1026, "response": "Alpha"}, "6": {"stimulus": 76, "trial": 6, "rt": 897, "response": "Beta"}, "9": {"stimulus": 25, "trial": 9, "rt": 1009, "response": "Alpha"}, "8": {"stimulus": 42, "trial": 8, "rt": 1770, "response": "Alpha"}, "78": {"stimulus": 6, "trial": 78, "rt": 612, "response": "Alpha"}, "51": {"stimulus": 41, "trial": 51, "rt": 752, "response": "Alpha"}, "39": {"stimulus": 24, "trial": 39, "rt": 879, "response": "Alpha"}, "65": {"stimulus": 43, "trial": 65, "rt": 996, "response": "Alpha"}, "76": {"stimulus": 61, "trial": 76, "rt": 713, "response": "Beta"}, "75": {"stimulus": 63, "trial": 75, "rt": 966, "response": "Beta"}, "38": {"stimulus": 45, "trial": 38, "rt": 1349, "response": "Alpha"}, "73": {"stimulus": 69, "trial": 73, "rt": 649, "response": "Beta"}, "72": {"stimulus": 56, "trial": 72, "rt": 827, "response": "Beta"}, "71": {"stimulus": 74, "trial": 71, "rt": 1017, "response": "Beta"}, "70": {"stimulus": 62, "trial": 70, "rt": 1309, "response": "Alpha"}, "59": {"stimulus": 37, "trial": 59, "rt": 1101, "response": "Alpha"}, "79": {"stimulus": 78, "trial": 79, "rt": 1024, "response": "Beta"}, "58": {"stimulus": 17, "trial": 58, "rt": 762, "response": "Alpha"}, "11": {"stimulus": 31, "trial": 11, "rt": 2280, "response": "Alpha"}, "10": {"stimulus": 8, "trial": 10, "rt": 914, "response": "Alpha"}, "13": {"stimulus": 57, "trial": 13, "rt": 871, "response": "Beta"}, "12": {"stimulus": 48, "trial": 12, "rt": 1079, "response": "Beta"}, "15": {"stimulus": 47, "trial": 15, "rt": 2771, "response": "Alpha"}, "14": {"stimulus": 21, "trial": 14, "rt": 960, "response": "Alpha"}, "17": {"stimulus": 40, "trial": 17, "rt": 1077, "response": "Alpha"}, "16": {"stimulus": 38, "trial": 16, "rt": 1155, "response": "Alpha"}, "19": {"stimulus": 53, "trial": 19, "rt": 1498, "response": "Alpha"}, "18": {"stimulus": 67, "trial": 18, "rt": 1047, "response": "Beta"}, "31": {"stimulus": 30, "trial": 31, "rt": 893, "response": "Alpha"}, "30": {"stimulus": 58, "trial": 30, "rt": 929, "response": "Beta"}, "37": {"stimulus": 16, "trial": 37, "rt": 750, "response": "Alpha"}, "36": {"stimulus": 46, "trial": 36, "rt": 963, "response": "Alpha"}, "35": {"stimulus": 49, "trial": 35, "rt": 1812, "response": "Alpha"}, "34": {"stimulus": 10, "trial": 34, "rt": 919, "response": "Alpha"}, "33": {"stimulus": 15, "trial": 33, "rt": 923, "response": "Alpha"}, "55": {"stimulus": 23, "trial": 55, "rt": 683, "response": "Alpha"}, "74": {"stimulus": 19, "trial": 74, "rt": 949, "response": "Alpha"}, "32": {"stimulus": 64, "trial": 32, "rt": 1157, "response": "Beta"}, "57": {"stimulus": 52, "trial": 57, "rt": 2099, "response": "Alpha"}, "50": {"stimulus": 32, "trial": 50, "rt": 954, "response": "Alpha"}}}