{"generation": {"1": {"stimulus": 73, "trial": 1, "rt": 15634}, "0": {"stimulus": 78, "trial": 0, "rt": 24412}, "3": {"stimulus": 80, "trial": 3, "rt": 7747}, "2": {"stimulus": 75, "trial": 2, "rt": 7764}}, "info": {"finish": 1488823279900, "participant": 213, "exposed": true, "lab": false, "start": 1488822976742, "counterbalance": 3, "condition": "Cluster", "browser": {"platform": "Win32", "userAgent": "Mozilla/5.0 (Windows NT 10.0; WOW64) AppleWebKit/537.36 (KHTML, like Gecko) Chrome/56.0.2924.87 Safari/537.36"}}, "experiment": {"Paradigm": "TACL", "Stimuli": "Size-Color Squares", "Experiment": "Generating-Categories"}, "observation": {"11": {"stimulus": 16, "trial": 11, "rt": 1659}, "10": {"stimulus": 34, "trial": 10, "rt": 1508}, "1": {"stimulus": 32, "trial": 1, "rt": 2424}, "0": {"stimulus": 16, "trial": 0, "rt": 3019}, "3": {"stimulus": 14, "trial": 3, "rt": 1691}, "2": {"stimulus": 34, "trial": 2, "rt": 2215}, "5": {"stimulus": 34, "trial": 5, "rt": 2003}, "4": {"stimulus": 14, "trial": 4, "rt": 1937}, "7": {"stimulus": 16, "trial": 7, "rt": 2425}, "6": {"stimulus": 32, "trial": 6, "rt": 2032}, "9": {"stimulus": 32, "trial": 9, "rt": 2138}, "8": {"stimulus": 14, "trial": 8, "rt": 2066}}, "generalization": {"56": {"stimulus": 43, "trial": 56, "rt": 1963, "response": "Beta"}, "77": {"stimulus": 55, "trial": 77, "rt": 770, "response": "Beta"}, "54": {"stimulus": 34, "trial": 54, "rt": 886, "response": "Alpha"}, "42": {"stimulus": 13, "trial": 42, "rt": 954, "response": "Alpha"}, "48": {"stimulus": 72, "trial": 48, "rt": 1013, "response": "Beta"}, "43": {"stimulus": 40, "trial": 43, "rt": 1944, "response": "Beta"}, "60": {"stimulus": 18, "trial": 60, "rt": 2716, "response": "Alpha"}, "61": {"stimulus": 6, "trial": 61, "rt": 2798, "response": "Alpha"}, "62": {"stimulus": 14, "trial": 62, "rt": 703, "response": "Alpha"}, "63": {"stimulus": 65, "trial": 63, "rt": 1016, "response": "Beta"}, "64": {"stimulus": 45, "trial": 64, "rt": 1703, "response": "Beta"}, "49": {"stimulus": 63, "trial": 49, "rt": 1074, "response": "Beta"}, "66": {"stimulus": 61, "trial": 66, "rt": 1311, "response": "Beta"}, "67": {"stimulus": 24, "trial": 67, "rt": 1269, "response": "Alpha"}, "68": {"stimulus": 52, "trial": 68, "rt": 1126, "response": "Beta"}, "69": {"stimulus": 71, "trial": 69, "rt": 771, "response": "Beta"}, "80": {"stimulus": 66, "trial": 80, "rt": 976, "response": "Beta"}, "52": {"stimulus": 56, "trial": 52, "rt": 1224, "response": "Beta"}, "53": {"stimulus": 36, "trial": 53, "rt": 1349, "response": "Alpha"}, "24": {"stimulus": 47, "trial": 24, "rt": 1064, "response": "Beta"}, "25": {"stimulus": 1, "trial": 25, "rt": 1273, "response": "Alpha"}, "26": {"stimulus": 19, "trial": 26, "rt": 855, "response": "Alpha"}, "27": {"stimulus": 26, "trial": 27, "rt": 905, "response": "Alpha"}, "20": {"stimulus": 22, "trial": 20, "rt": 1555, "response": "Alpha"}, "21": {"stimulus": 9, "trial": 21, "rt": 1265, "response": "Alpha"}, "22": {"stimulus": 31, "trial": 22, "rt": 1015, "response": "Alpha"}, "23": {"stimulus": 60, "trial": 23, "rt": 2170, "response": "Beta"}, "46": {"stimulus": 12, "trial": 46, "rt": 1023, "response": "Alpha"}, "47": {"stimulus": 54, "trial": 47, "rt": 1445, "response": "Beta"}, "44": {"stimulus": 0, "trial": 44, "rt": 637, "response": "Alpha"}, "45": {"stimulus": 74, "trial": 45, "rt": 1111, "response": "Beta"}, "28": {"stimulus": 8, "trial": 28, "rt": 1085, "response": "Alpha"}, "29": {"stimulus": 37, "trial": 29, "rt": 1880, "response": "Alpha"}, "40": {"stimulus": 67, "trial": 40, "rt": 1688, "response": "Beta"}, "41": {"stimulus": 7, "trial": 41, "rt": 1004, "response": "Alpha"}, "1": {"stimulus": 68, "trial": 1, "rt": 1063, "response": "Beta"}, "0": {"stimulus": 69, "trial": 0, "rt": 2549, "response": "Beta"}, "3": {"stimulus": 39, "trial": 3, "rt": 1844, "response": "Alpha"}, "2": {"stimulus": 30, "trial": 2, "rt": 1409, "response": "Alpha"}, "5": {"stimulus": 49, "trial": 5, "rt": 1017, "response": "Beta"}, "4": {"stimulus": 51, "trial": 4, "rt": 1476, "response": "Beta"}, "7": {"stimulus": 33, "trial": 7, "rt": 1112, "response": "Alpha"}, "6": {"stimulus": 35, "trial": 6, "rt": 1246, "response": "Alpha"}, "9": {"stimulus": 41, "trial": 9, "rt": 2726, "response": "Alpha"}, "8": {"stimulus": 46, "trial": 8, "rt": 1869, "response": "Beta"}, "78": {"stimulus": 15, "trial": 78, "rt": 1015, "response": "Alpha"}, "51": {"stimulus": 11, "trial": 51, "rt": 1038, "response": "Alpha"}, "39": {"stimulus": 2, "trial": 39, "rt": 1787, "response": "Alpha"}, "65": {"stimulus": 29, "trial": 65, "rt": 1169, "response": "Alpha"}, "76": {"stimulus": 73, "trial": 76, "rt": 668, "response": "Beta"}, "75": {"stimulus": 78, "trial": 75, "rt": 1145, "response": "Beta"}, "38": {"stimulus": 16, "trial": 38, "rt": 790, "response": "Alpha"}, "73": {"stimulus": 75, "trial": 73, "rt": 782, "response": "Beta"}, "72": {"stimulus": 50, "trial": 72, "rt": 793, "response": "Beta"}, "71": {"stimulus": 64, "trial": 71, "rt": 853, "response": "Beta"}, "70": {"stimulus": 44, "trial": 70, "rt": 1122, "response": "Beta"}, "59": {"stimulus": 79, "trial": 59, "rt": 1117, "response": "Beta"}, "79": {"stimulus": 42, "trial": 79, "rt": 727, "response": "Alpha"}, "58": {"stimulus": 27, "trial": 58, "rt": 1395, "response": "Alpha"}, "11": {"stimulus": 77, "trial": 11, "rt": 1082, "response": "Beta"}, "10": {"stimulus": 53, "trial": 10, "rt": 1290, "response": "Beta"}, "13": {"stimulus": 57, "trial": 13, "rt": 1369, "response": "Beta"}, "12": {"stimulus": 48, "trial": 12, "rt": 1657, "response": "Alpha"}, "15": {"stimulus": 70, "trial": 15, "rt": 869, "response": "Beta"}, "14": {"stimulus": 21, "trial": 14, "rt": 1145, "response": "Alpha"}, "17": {"stimulus": 28, "trial": 17, "rt": 1296, "response": "Alpha"}, "16": {"stimulus": 62, "trial": 16, "rt": 4155, "response": "Beta"}, "19": {"stimulus": 3, "trial": 19, "rt": 3136, "response": "Alpha"}, "18": {"stimulus": 59, "trial": 18, "rt": 1148, "response": "Beta"}, "31": {"stimulus": 32, "trial": 31, "rt": 1069, "response": "Alpha"}, "30": {"stimulus": 10, "trial": 30, "rt": 840, "response": "Alpha"}, "37": {"stimulus": 25, "trial": 37, "rt": 1307, "response": "Alpha"}, "36": {"stimulus": 20, "trial": 36, "rt": 681, "response": "Alpha"}, "35": {"stimulus": 38, "trial": 35, "rt": 1515, "response": "Alpha"}, "34": {"stimulus": 17, "trial": 34, "rt": 3293, "response": "Alpha"}, "33": {"stimulus": 23, "trial": 33, "rt": 1229, "response": "Alpha"}, "55": {"stimulus": 80, "trial": 55, "rt": 1058, "response": "Beta"}, "74": {"stimulus": 4, "trial": 74, "rt": 988, "response": "Alpha"}, "32": {"stimulus": 76, "trial": 32, "rt": 1189, "response": "Beta"}, "57": {"stimulus": 5, "trial": 57, "rt": 1122, "response": "Alpha"}, "50": {"stimulus": 58, "trial": 50, "rt": 1084, "response": "Beta"}}}