{"generation": {"1": {"stimulus": 46, "trial": 1, "rt": 6243}, "0": {"stimulus": 72, "trial": 0, "rt": 18931}, "3": {"stimulus": 54, "trial": 3, "rt": 8996}, "2": {"stimulus": 73, "trial": 2, "rt": 11075}}, "info": {"finish": 1488823225578, "participant": 214, "exposed": true, "lab": false, "start": 1488822978826, "counterbalance": 6, "condition": "Cluster", "browser": {"platform": "Linux x86_64", "userAgent": "Mozilla/5.0 (X11; Linux x86_64) AppleWebKit/537.36 (KHTML, like Gecko) Chrome/56.0.2924.87 Safari/537.36"}}, "experiment": {"Paradigm": "TACL", "Stimuli": "Size-Color Squares", "Experiment": "Generating-Categories"}, "observation": {"11": {"stimulus": 14, "trial": 11, "rt": 1228}, "10": {"stimulus": 16, "trial": 10, "rt": 1756}, "1": {"stimulus": 34, "trial": 1, "rt": 2700}, "0": {"stimulus": 14, "trial": 0, "rt": 4425}, "3": {"stimulus": 16, "trial": 3, "rt": 1604}, "2": {"stimulus": 32, "trial": 2, "rt": 1724}, "5": {"stimulus": 14, "trial": 5, "rt": 1700}, "4": {"stimulus": 32, "trial": 4, "rt": 1660}, "7": {"stimulus": 34, "trial": 7, "rt": 1428}, "6": {"stimulus": 16, "trial": 6, "rt": 1540}, "9": {"stimulus": 34, "trial": 9, "rt": 1276}, "8": {"stimulus": 32, "trial": 8, "rt": 1572}}, "generalization": {"56": {"stimulus": 40, "trial": 56, "rt": 780, "response": "Alpha"}, "77": {"stimulus": 78, "trial": 77, "rt": 1556, "response": "Alpha"}, "54": {"stimulus": 62, "trial": 54, "rt": 748, "response": "Alpha"}, "42": {"stimulus": 36, "trial": 42, "rt": 955, "response": "Beta"}, "48": {"stimulus": 46, "trial": 48, "rt": 764, "response": "Beta"}, "43": {"stimulus": 59, "trial": 43, "rt": 891, "response": "Alpha"}, "60": {"stimulus": 52, "trial": 60, "rt": 579, "response": "Alpha"}, "61": {"stimulus": 51, "trial": 61, "rt": 763, "response": "Alpha"}, "62": {"stimulus": 53, "trial": 62, "rt": 779, "response": "Alpha"}, "63": {"stimulus": 60, "trial": 63, "rt": 867, "response": "Alpha"}, "64": {"stimulus": 70, "trial": 64, "rt": 748, "response": "Alpha"}, "49": {"stimulus": 68, "trial": 49, "rt": 827, "response": "Alpha"}, "66": {"stimulus": 1, "trial": 66, "rt": 876, "response": "Beta"}, "67": {"stimulus": 44, "trial": 67, "rt": 644, "response": "Alpha"}, "68": {"stimulus": 55, "trial": 68, "rt": 851, "response": "Beta"}, "69": {"stimulus": 42, "trial": 69, "rt": 412, "response": "Alpha"}, "80": {"stimulus": 49, "trial": 80, "rt": 1068, "response": "Alpha"}, "52": {"stimulus": 0, "trial": 52, "rt": 763, "response": "Beta"}, "53": {"stimulus": 30, "trial": 53, "rt": 1099, "response": "Beta"}, "24": {"stimulus": 47, "trial": 24, "rt": 651, "response": "Beta"}, "25": {"stimulus": 17, "trial": 25, "rt": 683, "response": "Alpha"}, "26": {"stimulus": 14, "trial": 26, "rt": 835, "response": "Alpha"}, "27": {"stimulus": 79, "trial": 27, "rt": 1195, "response": "Alpha"}, "20": {"stimulus": 9, "trial": 20, "rt": 747, "response": "Beta"}, "21": {"stimulus": 76, "trial": 21, "rt": 1395, "response": "Alpha"}, "22": {"stimulus": 71, "trial": 22, "rt": 923, "response": "Alpha"}, "23": {"stimulus": 66, "trial": 23, "rt": 1899, "response": "Alpha"}, "46": {"stimulus": 75, "trial": 46, "rt": 996, "response": "Alpha"}, "47": {"stimulus": 61, "trial": 47, "rt": 1195, "response": "Alpha"}, "44": {"stimulus": 4, "trial": 44, "rt": 852, "response": "Alpha"}, "45": {"stimulus": 39, "trial": 45, "rt": 2323, "response": "Alpha"}, "28": {"stimulus": 38, "trial": 28, "rt": 1003, "response": "Beta"}, "29": {"stimulus": 67, "trial": 29, "rt": 867, "response": "Alpha"}, "40": {"stimulus": 13, "trial": 40, "rt": 1051, "response": "Alpha"}, "41": {"stimulus": 2, "trial": 41, "rt": 1563, "response": "Beta"}, "1": {"stimulus": 28, "trial": 1, "rt": 1539, "response": "Beta"}, "0": {"stimulus": 22, "trial": 0, "rt": 4194, "response": "Alpha"}, "3": {"stimulus": 48, "trial": 3, "rt": 4460, "response": "Alpha"}, "2": {"stimulus": 80, "trial": 2, "rt": 1124, "response": "Alpha"}, "5": {"stimulus": 16, "trial": 5, "rt": 1163, "response": "Alpha"}, "4": {"stimulus": 77, "trial": 4, "rt": 1164, "response": "Alpha"}, "7": {"stimulus": 56, "trial": 7, "rt": 939, "response": "Beta"}, "6": {"stimulus": 23, "trial": 6, "rt": 1331, "response": "Alpha"}, "9": {"stimulus": 24, "trial": 9, "rt": 931, "response": "Alpha"}, "8": {"stimulus": 6, "trial": 8, "rt": 779, "response": "Alpha"}, "78": {"stimulus": 32, "trial": 78, "rt": 3076, "response": "Alpha"}, "51": {"stimulus": 7, "trial": 51, "rt": 643, "response": "Alpha"}, "39": {"stimulus": 21, "trial": 39, "rt": 1843, "response": "Alpha"}, "65": {"stimulus": 33, "trial": 65, "rt": 691, "response": "Alpha"}, "76": {"stimulus": 8, "trial": 76, "rt": 668, "response": "Beta"}, "75": {"stimulus": 57, "trial": 75, "rt": 1947, "response": "Alpha"}, "38": {"stimulus": 10, "trial": 38, "rt": 1155, "response": "Beta"}, "73": {"stimulus": 15, "trial": 73, "rt": 596, "response": "Alpha"}, "72": {"stimulus": 29, "trial": 72, "rt": 740, "response": "Beta"}, "71": {"stimulus": 25, "trial": 71, "rt": 1132, "response": "Alpha"}, "70": {"stimulus": 72, "trial": 70, "rt": 796, "response": "Beta"}, "59": {"stimulus": 11, "trial": 59, "rt": 868, "response": "Beta"}, "79": {"stimulus": 18, "trial": 79, "rt": 756, "response": "Beta"}, "58": {"stimulus": 74, "trial": 58, "rt": 948, "response": "Beta"}, "11": {"stimulus": 54, "trial": 11, "rt": 731, "response": "Beta"}, "10": {"stimulus": 26, "trial": 10, "rt": 979, "response": "Alpha"}, "13": {"stimulus": 3, "trial": 13, "rt": 1067, "response": "Beta"}, "12": {"stimulus": 35, "trial": 12, "rt": 739, "response": "Alpha"}, "15": {"stimulus": 45, "trial": 15, "rt": 955, "response": "Beta"}, "14": {"stimulus": 37, "trial": 14, "rt": 1155, "response": "Beta"}, "17": {"stimulus": 73, "trial": 17, "rt": 779, "response": "Beta"}, "16": {"stimulus": 58, "trial": 16, "rt": 891, "response": "Alpha"}, "19": {"stimulus": 34, "trial": 19, "rt": 1011, "response": "Alpha"}, "18": {"stimulus": 5, "trial": 18, "rt": 1139, "response": "Alpha"}, "31": {"stimulus": 63, "trial": 31, "rt": 1427, "response": "Beta"}, "30": {"stimulus": 27, "trial": 30, "rt": 715, "response": "Beta"}, "37": {"stimulus": 19, "trial": 37, "rt": 651, "response": "Beta"}, "36": {"stimulus": 50, "trial": 36, "rt": 892, "response": "Alpha"}, "35": {"stimulus": 41, "trial": 35, "rt": 1131, "response": "Alpha"}, "34": {"stimulus": 64, "trial": 34, "rt": 787, "response": "Beta"}, "33": {"stimulus": 12, "trial": 33, "rt": 1035, "response": "Alpha"}, "55": {"stimulus": 69, "trial": 55, "rt": 682, "response": "Alpha"}, "74": {"stimulus": 20, "trial": 74, "rt": 860, "response": "Beta"}, "32": {"stimulus": 65, "trial": 32, "rt": 979, "response": "Beta"}, "57": {"stimulus": 31, "trial": 57, "rt": 884, "response": "Alpha"}, "50": {"stimulus": 43, "trial": 50, "rt": 876, "response": "Alpha"}}}