{"generation": {"1": {"stimulus": 1, "trial": 1, "rt": 5417}, "0": {"stimulus": 73, "trial": 0, "rt": 10907}, "3": {"stimulus": 72, "trial": 3, "rt": 4058}, "2": {"stimulus": 80, "trial": 2, "rt": 3043}}, "info": {"finish": 1488823204920, "participant": 215, "exposed": true, "lab": false, "start": 1488822991277, "counterbalance": 0, "condition": "Cluster", "browser": {"platform": "Win32", "userAgent": "Mozilla/5.0 (Windows NT 10.0; WOW64) AppleWebKit/537.36 (KHTML, like Gecko) Chrome/56.0.2924.87 Safari/537.36"}}, "experiment": {"Paradigm": "TACL", "Stimuli": "Size-Color Squares", "Experiment": "Generating-Categories"}, "observation": {"11": {"stimulus": 34, "trial": 11, "rt": 3466}, "10": {"stimulus": 14, "trial": 10, "rt": 1338}, "1": {"stimulus": 14, "trial": 1, "rt": 1787}, "0": {"stimulus": 34, "trial": 0, "rt": 2562}, "3": {"stimulus": 32, "trial": 3, "rt": 1178}, "2": {"stimulus": 16, "trial": 2, "rt": 1427}, "5": {"stimulus": 32, "trial": 5, "rt": 1171}, "4": {"stimulus": 14, "trial": 4, "rt": 1499}, "7": {"stimulus": 34, "trial": 7, "rt": 1778}, "6": {"stimulus": 16, "trial": 6, "rt": 1282}, "9": {"stimulus": 16, "trial": 9, "rt": 979}, "8": {"stimulus": 32, "trial": 8, "rt": 1603}}, "generalization": {"56": {"stimulus": 30, "trial": 56, "rt": 610, "response": "Alpha"}, "77": {"stimulus": 64, "trial": 77, "rt": 867, "response": "Beta"}, "54": {"stimulus": 21, "trial": 54, "rt": 674, "response": "Alpha"}, "42": {"stimulus": 63, "trial": 42, "rt": 683, "response": "Beta"}, "48": {"stimulus": 17, "trial": 48, "rt": 643, "response": "Alpha"}, "43": {"stimulus": 39, "trial": 43, "rt": 2458, "response": "Beta"}, "60": {"stimulus": 78, "trial": 60, "rt": 1139, "response": "Beta"}, "61": {"stimulus": 6, "trial": 61, "rt": 915, "response": "Alpha"}, "62": {"stimulus": 45, "trial": 62, "rt": 2011, "response": "Beta"}, "63": {"stimulus": 1, "trial": 63, "rt": 666, "response": "Beta"}, "64": {"stimulus": 68, "trial": 64, "rt": 2537, "response": "Beta"}, "49": {"stimulus": 69, "trial": 49, "rt": 2356, "response": "Beta"}, "66": {"stimulus": 38, "trial": 66, "rt": 3850, "response": "Alpha"}, "67": {"stimulus": 50, "trial": 67, "rt": 690, "response": "Alpha"}, "68": {"stimulus": 56, "trial": 68, "rt": 818, "response": "Alpha"}, "69": {"stimulus": 55, "trial": 69, "rt": 1387, "response": "Beta"}, "80": {"stimulus": 34, "trial": 80, "rt": 948, "response": "Alpha"}, "52": {"stimulus": 80, "trial": 52, "rt": 979, "response": "Beta"}, "53": {"stimulus": 11, "trial": 53, "rt": 788, "response": "Alpha"}, "24": {"stimulus": 52, "trial": 24, "rt": 1779, "response": "Alpha"}, "25": {"stimulus": 18, "trial": 25, "rt": 1113, "response": "Beta"}, "26": {"stimulus": 43, "trial": 26, "rt": 764, "response": "Alpha"}, "27": {"stimulus": 37, "trial": 27, "rt": 1322, "response": "Beta"}, "20": {"stimulus": 7, "trial": 20, "rt": 1066, "response": "Alpha"}, "21": {"stimulus": 46, "trial": 21, "rt": 1091, "response": "Beta"}, "22": {"stimulus": 16, "trial": 22, "rt": 831, "response": "Alpha"}, "23": {"stimulus": 27, "trial": 23, "rt": 1115, "response": "Beta"}, "46": {"stimulus": 66, "trial": 46, "rt": 691, "response": "Beta"}, "47": {"stimulus": 53, "trial": 47, "rt": 1011, "response": "Alpha"}, "44": {"stimulus": 28, "trial": 44, "rt": 866, "response": "Beta"}, "45": {"stimulus": 61, "trial": 45, "rt": 691, "response": "Alpha"}, "28": {"stimulus": 12, "trial": 28, "rt": 3354, "response": "Beta"}, "29": {"stimulus": 48, "trial": 29, "rt": 1026, "response": "Beta"}, "40": {"stimulus": 2, "trial": 40, "rt": 1187, "response": "Beta"}, "41": {"stimulus": 54, "trial": 41, "rt": 739, "response": "Beta"}, "1": {"stimulus": 24, "trial": 1, "rt": 1164, "response": "Alpha"}, "0": {"stimulus": 75, "trial": 0, "rt": 5498, "response": "Beta"}, "3": {"stimulus": 65, "trial": 3, "rt": 914, "response": "Beta"}, "2": {"stimulus": 73, "trial": 2, "rt": 764, "response": "Beta"}, "5": {"stimulus": 57, "trial": 5, "rt": 995, "response": "Beta"}, "4": {"stimulus": 59, "trial": 4, "rt": 1323, "response": "Alpha"}, "7": {"stimulus": 70, "trial": 7, "rt": 731, "response": "Alpha"}, "6": {"stimulus": 47, "trial": 6, "rt": 1002, "response": "Beta"}, "9": {"stimulus": 79, "trial": 9, "rt": 1011, "response": "Beta"}, "8": {"stimulus": 51, "trial": 8, "rt": 3378, "response": "Alpha"}, "78": {"stimulus": 41, "trial": 78, "rt": 820, "response": "Beta"}, "51": {"stimulus": 26, "trial": 51, "rt": 722, "response": "Alpha"}, "39": {"stimulus": 29, "trial": 39, "rt": 819, "response": "Alpha"}, "65": {"stimulus": 44, "trial": 65, "rt": 987, "response": "Alpha"}, "76": {"stimulus": 15, "trial": 76, "rt": 587, "response": "Alpha"}, "75": {"stimulus": 25, "trial": 75, "rt": 588, "response": "Alpha"}, "38": {"stimulus": 76, "trial": 38, "rt": 803, "response": "Alpha"}, "73": {"stimulus": 3, "trial": 73, "rt": 892, "response": "Alpha"}, "72": {"stimulus": 71, "trial": 72, "rt": 683, "response": "Alpha"}, "71": {"stimulus": 10, "trial": 71, "rt": 1236, "response": "Beta"}, "70": {"stimulus": 4, "trial": 70, "rt": 612, "response": "Alpha"}, "59": {"stimulus": 77, "trial": 59, "rt": 1467, "response": "Beta"}, "79": {"stimulus": 0, "trial": 79, "rt": 962, "response": "Beta"}, "58": {"stimulus": 67, "trial": 58, "rt": 1121, "response": "Beta"}, "11": {"stimulus": 14, "trial": 11, "rt": 1612, "response": "Alpha"}, "10": {"stimulus": 31, "trial": 10, "rt": 1924, "response": "Alpha"}, "13": {"stimulus": 19, "trial": 13, "rt": 771, "response": "Beta"}, "12": {"stimulus": 13, "trial": 12, "rt": 714, "response": "Alpha"}, "15": {"stimulus": 20, "trial": 15, "rt": 5291, "response": "Beta"}, "14": {"stimulus": 36, "trial": 14, "rt": 1108, "response": "Beta"}, "17": {"stimulus": 23, "trial": 17, "rt": 1219, "response": "Alpha"}, "16": {"stimulus": 9, "trial": 16, "rt": 1618, "response": "Beta"}, "19": {"stimulus": 60, "trial": 19, "rt": 1362, "response": "Beta"}, "18": {"stimulus": 35, "trial": 18, "rt": 1003, "response": "Alpha"}, "31": {"stimulus": 42, "trial": 31, "rt": 771, "response": "Alpha"}, "30": {"stimulus": 49, "trial": 30, "rt": 675, "response": "Beta"}, "37": {"stimulus": 5, "trial": 37, "rt": 843, "response": "Alpha"}, "36": {"stimulus": 74, "trial": 36, "rt": 851, "response": "Beta"}, "35": {"stimulus": 8, "trial": 35, "rt": 778, "response": "Alpha"}, "34": {"stimulus": 40, "trial": 34, "rt": 2003, "response": "Alpha"}, "33": {"stimulus": 58, "trial": 33, "rt": 1075, "response": "Beta"}, "55": {"stimulus": 62, "trial": 55, "rt": 1211, "response": "Alpha"}, "74": {"stimulus": 33, "trial": 74, "rt": 1049, "response": "Alpha"}, "32": {"stimulus": 22, "trial": 32, "rt": 778, "response": "Alpha"}, "57": {"stimulus": 72, "trial": 57, "rt": 962, "response": "Beta"}, "50": {"stimulus": 32, "trial": 50, "rt": 1251, "response": "Alpha"}}}