{"generation": {"1": {"stimulus": 73, "trial": 1, "rt": 3751}, "0": {"stimulus": 72, "trial": 0, "rt": 12437}, "3": {"stimulus": 75, "trial": 3, "rt": 3422}, "2": {"stimulus": 74, "trial": 2, "rt": 5137}}, "info": {"finish": 1488823296476, "participant": 216, "exposed": true, "lab": false, "start": 1488823004839, "counterbalance": 4, "condition": "XOR", "browser": {"platform": "Win32", "userAgent": "Mozilla/5.0 (Windows NT 6.1; WOW64) AppleWebKit/537.36 (KHTML, like Gecko) Chrome/56.0.2924.87 YaBrowser/17.3.0.1785 Yowser/2.5 Safari/537.36"}}, "experiment": {"Paradigm": "TACL", "Stimuli": "Size-Color Squares", "Experiment": "Generating-Categories"}, "observation": {"11": {"stimulus": 0, "trial": 11, "rt": 1519}, "10": {"stimulus": 80, "trial": 10, "rt": 999}, "1": {"stimulus": 80, "trial": 1, "rt": 1627}, "0": {"stimulus": 10, "trial": 0, "rt": 1505}, "3": {"stimulus": 70, "trial": 3, "rt": 1438}, "2": {"stimulus": 0, "trial": 2, "rt": 1455}, "5": {"stimulus": 80, "trial": 5, "rt": 957}, "4": {"stimulus": 10, "trial": 4, "rt": 1341}, "7": {"stimulus": 70, "trial": 7, "rt": 1158}, "6": {"stimulus": 0, "trial": 6, "rt": 976}, "9": {"stimulus": 70, "trial": 9, "rt": 1201}, "8": {"stimulus": 10, "trial": 8, "rt": 1172}}, "generalization": {"56": {"stimulus": 70, "trial": 56, "rt": 757, "response": "Alpha"}, "77": {"stimulus": 73, "trial": 77, "rt": 1645, "response": "Beta"}, "54": {"stimulus": 64, "trial": 54, "rt": 1418, "response": "Beta"}, "42": {"stimulus": 6, "trial": 42, "rt": 1368, "response": "Beta"}, "48": {"stimulus": 58, "trial": 48, "rt": 1372, "response": "Beta"}, "43": {"stimulus": 23, "trial": 43, "rt": 1924, "response": "Beta"}, "60": {"stimulus": 44, "trial": 60, "rt": 1032, "response": "Alpha"}, "61": {"stimulus": 66, "trial": 61, "rt": 1990, "response": "Beta"}, "62": {"stimulus": 30, "trial": 62, "rt": 2002, "response": "Alpha"}, "63": {"stimulus": 67, "trial": 63, "rt": 906, "response": "Beta"}, "64": {"stimulus": 8, "trial": 64, "rt": 1153, "response": "Beta"}, "49": {"stimulus": 52, "trial": 49, "rt": 930, "response": "Alpha"}, "66": {"stimulus": 12, "trial": 66, "rt": 1261, "response": "Alpha"}, "67": {"stimulus": 1, "trial": 67, "rt": 1185, "response": "Alpha"}, "68": {"stimulus": 31, "trial": 68, "rt": 2290, "response": "Beta"}, "69": {"stimulus": 4, "trial": 69, "rt": 2140, "response": "Alpha"}, "80": {"stimulus": 42, "trial": 80, "rt": 1412, "response": "Alpha"}, "52": {"stimulus": 22, "trial": 52, "rt": 2650, "response": "Beta"}, "53": {"stimulus": 78, "trial": 53, "rt": 884, "response": "Alpha"}, "24": {"stimulus": 69, "trial": 24, "rt": 1413, "response": "Alpha"}, "25": {"stimulus": 68, "trial": 25, "rt": 664, "response": "Alpha"}, "26": {"stimulus": 79, "trial": 26, "rt": 748, "response": "Alpha"}, "27": {"stimulus": 60, "trial": 27, "rt": 542, "response": "Alpha"}, "20": {"stimulus": 40, "trial": 20, "rt": 1536, "response": "Beta"}, "21": {"stimulus": 15, "trial": 21, "rt": 1790, "response": "Beta"}, "22": {"stimulus": 34, "trial": 22, "rt": 1564, "response": "Beta"}, "23": {"stimulus": 37, "trial": 23, "rt": 2315, "response": "Beta"}, "46": {"stimulus": 7, "trial": 46, "rt": 1888, "response": "Beta"}, "47": {"stimulus": 65, "trial": 47, "rt": 2610, "response": "Beta"}, "44": {"stimulus": 32, "trial": 44, "rt": 1053, "response": "Beta"}, "45": {"stimulus": 29, "trial": 45, "rt": 1140, "response": "Alpha"}, "28": {"stimulus": 45, "trial": 28, "rt": 960, "response": "Beta"}, "29": {"stimulus": 26, "trial": 29, "rt": 1306, "response": "Beta"}, "40": {"stimulus": 11, "trial": 40, "rt": 3154, "response": "Alpha"}, "41": {"stimulus": 47, "trial": 41, "rt": 1000, "response": "Beta"}, "1": {"stimulus": 28, "trial": 1, "rt": 2773, "response": "Beta"}, "0": {"stimulus": 5, "trial": 0, "rt": 3727, "response": "Beta"}, "3": {"stimulus": 63, "trial": 3, "rt": 1041, "response": "Beta"}, "2": {"stimulus": 55, "trial": 2, "rt": 1155, "response": "Beta"}, "5": {"stimulus": 24, "trial": 5, "rt": 3153, "response": "Alpha"}, "4": {"stimulus": 48, "trial": 4, "rt": 1257, "response": "Beta"}, "7": {"stimulus": 43, "trial": 7, "rt": 700, "response": "Alpha"}, "6": {"stimulus": 71, "trial": 6, "rt": 838, "response": "Alpha"}, "9": {"stimulus": 59, "trial": 9, "rt": 2135, "response": "Beta"}, "8": {"stimulus": 35, "trial": 8, "rt": 607, "response": "Alpha"}, "78": {"stimulus": 75, "trial": 78, "rt": 2367, "response": "Beta"}, "51": {"stimulus": 53, "trial": 51, "rt": 1770, "response": "Alpha"}, "39": {"stimulus": 27, "trial": 39, "rt": 1469, "response": "Beta"}, "65": {"stimulus": 36, "trial": 65, "rt": 2029, "response": "Beta"}, "76": {"stimulus": 19, "trial": 76, "rt": 967, "response": "Alpha"}, "75": {"stimulus": 74, "trial": 75, "rt": 1369, "response": "Beta"}, "38": {"stimulus": 61, "trial": 38, "rt": 1249, "response": "Alpha"}, "73": {"stimulus": 57, "trial": 73, "rt": 1063, "response": "Beta"}, "72": {"stimulus": 33, "trial": 72, "rt": 1035, "response": "Alpha"}, "71": {"stimulus": 56, "trial": 71, "rt": 1027, "response": "Beta"}, "70": {"stimulus": 3, "trial": 70, "rt": 7919, "response": "Alpha"}, "59": {"stimulus": 77, "trial": 59, "rt": 796, "response": "Alpha"}, "79": {"stimulus": 14, "trial": 79, "rt": 6823, "response": "Alpha"}, "58": {"stimulus": 72, "trial": 58, "rt": 1453, "response": "Beta"}, "11": {"stimulus": 0, "trial": 11, "rt": 2293, "response": "Alpha"}, "10": {"stimulus": 50, "trial": 10, "rt": 826, "response": "Beta"}, "13": {"stimulus": 62, "trial": 13, "rt": 993, "response": "Beta"}, "12": {"stimulus": 18, "trial": 12, "rt": 555, "response": "Alpha"}, "15": {"stimulus": 16, "trial": 15, "rt": 1249, "response": "Beta"}, "14": {"stimulus": 2, "trial": 14, "rt": 4104, "response": "Alpha"}, "17": {"stimulus": 20, "trial": 17, "rt": 2013, "response": "Alpha"}, "16": {"stimulus": 10, "trial": 16, "rt": 1117, "response": "Alpha"}, "19": {"stimulus": 21, "trial": 19, "rt": 2480, "response": "Alpha"}, "18": {"stimulus": 49, "trial": 18, "rt": 1079, "response": "Beta"}, "31": {"stimulus": 39, "trial": 31, "rt": 5379, "response": "Beta"}, "30": {"stimulus": 51, "trial": 30, "rt": 1395, "response": "Beta"}, "37": {"stimulus": 80, "trial": 37, "rt": 1069, "response": "Beta"}, "36": {"stimulus": 76, "trial": 36, "rt": 6304, "response": "Beta"}, "35": {"stimulus": 25, "trial": 35, "rt": 1261, "response": "Beta"}, "34": {"stimulus": 13, "trial": 34, "rt": 12540, "response": "Alpha"}, "33": {"stimulus": 46, "trial": 33, "rt": 1567, "response": "Beta"}, "55": {"stimulus": 41, "trial": 55, "rt": 7032, "response": "Alpha"}, "74": {"stimulus": 17, "trial": 74, "rt": 948, "response": "Alpha"}, "32": {"stimulus": 9, "trial": 32, "rt": 1060, "response": "Alpha"}, "57": {"stimulus": 38, "trial": 57, "rt": 6036, "response": "Beta"}, "50": {"stimulus": 54, "trial": 50, "rt": 1451, "response": "Beta"}}}