{"generation": {"1": {"stimulus": 70, "trial": 1, "rt": 5921}, "0": {"stimulus": 80, "trial": 0, "rt": 9304}, "3": {"stimulus": 67, "trial": 3, "rt": 6044}, "2": {"stimulus": 69, "trial": 2, "rt": 3794}}, "info": {"finish": 1488823177958, "participant": 217, "exposed": true, "lab": false, "start": 1488823004689, "counterbalance": 3, "condition": "Cluster", "browser": {"platform": "Win32", "userAgent": "Mozilla/5.0 (Windows NT 6.1; Win64; x64) AppleWebKit/537.36 (KHTML, like Gecko) Chrome/56.0.2924.87 Safari/537.36"}}, "experiment": {"Paradigm": "TACL", "Stimuli": "Size-Color Squares", "Experiment": "Generating-Categories"}, "observation": {"11": {"stimulus": 34, "trial": 11, "rt": 859}, "10": {"stimulus": 14, "trial": 10, "rt": 739}, "1": {"stimulus": 34, "trial": 1, "rt": 1386}, "0": {"stimulus": 14, "trial": 0, "rt": 2536}, "3": {"stimulus": 32, "trial": 3, "rt": 1107}, "2": {"stimulus": 16, "trial": 2, "rt": 971}, "5": {"stimulus": 14, "trial": 5, "rt": 1083}, "4": {"stimulus": 32, "trial": 4, "rt": 1019}, "7": {"stimulus": 34, "trial": 7, "rt": 906}, "6": {"stimulus": 16, "trial": 6, "rt": 915}, "9": {"stimulus": 16, "trial": 9, "rt": 1026}, "8": {"stimulus": 32, "trial": 8, "rt": 898}}, "generalization": {"56": {"stimulus": 11, "trial": 56, "rt": 410, "response": "Alpha"}, "77": {"stimulus": 32, "trial": 77, "rt": 931, "response": "Alpha"}, "54": {"stimulus": 68, "trial": 54, "rt": 698, "response": "Beta"}, "42": {"stimulus": 66, "trial": 42, "rt": 610, "response": "Beta"}, "48": {"stimulus": 79, "trial": 48, "rt": 699, "response": "Beta"}, "43": {"stimulus": 63, "trial": 43, "rt": 588, "response": "Beta"}, "60": {"stimulus": 50, "trial": 60, "rt": 899, "response": "Beta"}, "61": {"stimulus": 62, "trial": 61, "rt": 555, "response": "Beta"}, "62": {"stimulus": 1, "trial": 62, "rt": 834, "response": "Alpha"}, "63": {"stimulus": 69, "trial": 63, "rt": 819, "response": "Beta"}, "64": {"stimulus": 58, "trial": 64, "rt": 587, "response": "Beta"}, "49": {"stimulus": 77, "trial": 49, "rt": 603, "response": "Beta"}, "66": {"stimulus": 19, "trial": 66, "rt": 955, "response": "Alpha"}, "67": {"stimulus": 75, "trial": 67, "rt": 626, "response": "Beta"}, "68": {"stimulus": 17, "trial": 68, "rt": 1139, "response": "Alpha"}, "69": {"stimulus": 16, "trial": 69, "rt": 611, "response": "Alpha"}, "80": {"stimulus": 60, "trial": 80, "rt": 643, "response": "Beta"}, "52": {"stimulus": 9, "trial": 52, "rt": 531, "response": "Alpha"}, "53": {"stimulus": 3, "trial": 53, "rt": 547, "response": "Alpha"}, "24": {"stimulus": 40, "trial": 24, "rt": 739, "response": "Alpha"}, "25": {"stimulus": 80, "trial": 25, "rt": 722, "response": "Beta"}, "26": {"stimulus": 13, "trial": 26, "rt": 723, "response": "Alpha"}, "27": {"stimulus": 52, "trial": 27, "rt": 1141, "response": "Alpha"}, "20": {"stimulus": 30, "trial": 20, "rt": 819, "response": "Alpha"}, "21": {"stimulus": 44, "trial": 21, "rt": 787, "response": "Alpha"}, "22": {"stimulus": 43, "trial": 22, "rt": 539, "response": "Alpha"}, "23": {"stimulus": 53, "trial": 23, "rt": 763, "response": "Alpha"}, "46": {"stimulus": 29, "trial": 46, "rt": 1003, "response": "Alpha"}, "47": {"stimulus": 31, "trial": 47, "rt": 547, "response": "Alpha"}, "44": {"stimulus": 18, "trial": 44, "rt": 778, "response": "Alpha"}, "45": {"stimulus": 73, "trial": 45, "rt": 779, "response": "Beta"}, "28": {"stimulus": 37, "trial": 28, "rt": 697, "response": "Alpha"}, "29": {"stimulus": 33, "trial": 29, "rt": 650, "response": "Alpha"}, "40": {"stimulus": 10, "trial": 40, "rt": 674, "response": "Alpha"}, "41": {"stimulus": 34, "trial": 41, "rt": 700, "response": "Alpha"}, "1": {"stimulus": 46, "trial": 1, "rt": 1955, "response": "Beta"}, "0": {"stimulus": 2, "trial": 0, "rt": 1425, "response": "Alpha"}, "3": {"stimulus": 55, "trial": 3, "rt": 1226, "response": "Beta"}, "2": {"stimulus": 14, "trial": 2, "rt": 872, "response": "Alpha"}, "5": {"stimulus": 51, "trial": 5, "rt": 755, "response": "Beta"}, "4": {"stimulus": 23, "trial": 4, "rt": 643, "response": "Alpha"}, "7": {"stimulus": 39, "trial": 7, "rt": 715, "response": "Beta"}, "6": {"stimulus": 42, "trial": 6, "rt": 787, "response": "Beta"}, "9": {"stimulus": 61, "trial": 9, "rt": 843, "response": "Beta"}, "8": {"stimulus": 25, "trial": 8, "rt": 651, "response": "Alpha"}, "78": {"stimulus": 74, "trial": 78, "rt": 723, "response": "Beta"}, "51": {"stimulus": 4, "trial": 51, "rt": 667, "response": "Alpha"}, "39": {"stimulus": 20, "trial": 39, "rt": 1038, "response": "Alpha"}, "65": {"stimulus": 76, "trial": 65, "rt": 571, "response": "Beta"}, "76": {"stimulus": 54, "trial": 76, "rt": 667, "response": "Beta"}, "75": {"stimulus": 15, "trial": 75, "rt": 539, "response": "Alpha"}, "38": {"stimulus": 35, "trial": 38, "rt": 555, "response": "Alpha"}, "73": {"stimulus": 49, "trial": 73, "rt": 683, "response": "Alpha"}, "72": {"stimulus": 48, "trial": 72, "rt": 1939, "response": "Alpha"}, "71": {"stimulus": 8, "trial": 71, "rt": 538, "response": "Alpha"}, "70": {"stimulus": 26, "trial": 70, "rt": 747, "response": "Alpha"}, "59": {"stimulus": 72, "trial": 59, "rt": 827, "response": "Beta"}, "79": {"stimulus": 45, "trial": 79, "rt": 1579, "response": "Beta"}, "58": {"stimulus": 21, "trial": 58, "rt": 851, "response": "Alpha"}, "11": {"stimulus": 41, "trial": 11, "rt": 1411, "response": "Alpha"}, "10": {"stimulus": 22, "trial": 10, "rt": 819, "response": "Alpha"}, "13": {"stimulus": 71, "trial": 13, "rt": 819, "response": "Beta"}, "12": {"stimulus": 27, "trial": 12, "rt": 867, "response": "Alpha"}, "15": {"stimulus": 0, "trial": 15, "rt": 851, "response": "Alpha"}, "14": {"stimulus": 47, "trial": 14, "rt": 1647, "response": "Beta"}, "17": {"stimulus": 5, "trial": 17, "rt": 723, "response": "Alpha"}, "16": {"stimulus": 38, "trial": 16, "rt": 1946, "response": "Alpha"}, "19": {"stimulus": 36, "trial": 19, "rt": 1843, "response": "Alpha"}, "18": {"stimulus": 57, "trial": 18, "rt": 794, "response": "Beta"}, "31": {"stimulus": 64, "trial": 31, "rt": 763, "response": "Beta"}, "30": {"stimulus": 70, "trial": 30, "rt": 795, "response": "Beta"}, "37": {"stimulus": 24, "trial": 37, "rt": 627, "response": "Alpha"}, "36": {"stimulus": 28, "trial": 36, "rt": 779, "response": "Alpha"}, "35": {"stimulus": 12, "trial": 35, "rt": 659, "response": "Alpha"}, "34": {"stimulus": 67, "trial": 34, "rt": 531, "response": "Beta"}, "33": {"stimulus": 78, "trial": 33, "rt": 587, "response": "Beta"}, "55": {"stimulus": 6, "trial": 55, "rt": 730, "response": "Alpha"}, "74": {"stimulus": 7, "trial": 74, "rt": 1675, "response": "Alpha"}, "32": {"stimulus": 65, "trial": 32, "rt": 523, "response": "Beta"}, "57": {"stimulus": 59, "trial": 57, "rt": 683, "response": "Beta"}, "50": {"stimulus": 56, "trial": 50, "rt": 619, "response": "Beta"}}}