{"generation": {"1": {"stimulus": 59, "trial": 1, "rt": 4760}, "0": {"stimulus": 68, "trial": 0, "rt": 10851}, "3": {"stimulus": 28, "trial": 3, "rt": 2425}, "2": {"stimulus": 27, "trial": 2, "rt": 1979}}, "info": {"finish": 1488823415457, "participant": 218, "exposed": true, "lab": false, "start": 1488822999422, "counterbalance": 1, "condition": "Cluster", "browser": {"platform": "Win32", "userAgent": "Mozilla/5.0 (Windows NT 10.0; WOW64) AppleWebKit/537.36 (KHTML, like Gecko) Chrome/56.0.2924.87 Safari/537.36"}}, "experiment": {"Paradigm": "TACL", "Stimuli": "Size-Color Squares", "Experiment": "Generating-Categories"}, "observation": {"11": {"stimulus": 16, "trial": 11, "rt": 922}, "10": {"stimulus": 14, "trial": 10, "rt": 1085}, "1": {"stimulus": 16, "trial": 1, "rt": 19326}, "0": {"stimulus": 34, "trial": 0, "rt": 2540}, "3": {"stimulus": 32, "trial": 3, "rt": 984}, "2": {"stimulus": 14, "trial": 2, "rt": 1076}, "5": {"stimulus": 34, "trial": 5, "rt": 1037}, "4": {"stimulus": 32, "trial": 4, "rt": 749}, "7": {"stimulus": 14, "trial": 7, "rt": 1033}, "6": {"stimulus": 16, "trial": 6, "rt": 971}, "9": {"stimulus": 34, "trial": 9, "rt": 935}, "8": {"stimulus": 32, "trial": 8, "rt": 847}}, "generalization": {"56": {"stimulus": 76, "trial": 56, "rt": 758, "response": "Beta"}, "77": {"stimulus": 61, "trial": 77, "rt": 134, "response": "Alpha"}, "54": {"stimulus": 30, "trial": 54, "rt": 770, "response": "Beta"}, "42": {"stimulus": 74, "trial": 42, "rt": 339, "response": "Beta"}, "48": {"stimulus": 35, "trial": 48, "rt": 873, "response": "Beta"}, "43": {"stimulus": 63, "trial": 43, "rt": 315, "response": "Beta"}, "60": {"stimulus": 45, "trial": 60, "rt": 1520, "response": "Beta"}, "61": {"stimulus": 20, "trial": 61, "rt": 390, "response": "Beta"}, "62": {"stimulus": 60, "trial": 62, "rt": 216, "response": "Alpha"}, "63": {"stimulus": 53, "trial": 63, "rt": 209, "response": "Beta"}, "64": {"stimulus": 14, "trial": 64, "rt": 236, "response": "Alpha"}, "49": {"stimulus": 24, "trial": 49, "rt": 697, "response": "Beta"}, "66": {"stimulus": 15, "trial": 66, "rt": 234, "response": "Alpha"}, "67": {"stimulus": 58, "trial": 67, "rt": 254, "response": "Beta"}, "68": {"stimulus": 73, "trial": 68, "rt": 185, "response": "Beta"}, "69": {"stimulus": 59, "trial": 69, "rt": 192, "response": "Beta"}, "80": {"stimulus": 75, "trial": 80, "rt": 138, "response": "Beta"}, "52": {"stimulus": 48, "trial": 52, "rt": 453, "response": "Alpha"}, "53": {"stimulus": 25, "trial": 53, "rt": 886, "response": "Beta"}, "24": {"stimulus": 33, "trial": 24, "rt": 688, "response": "Beta"}, "25": {"stimulus": 51, "trial": 25, "rt": 440, "response": "Beta"}, "26": {"stimulus": 21, "trial": 26, "rt": 663, "response": "Alpha"}, "27": {"stimulus": 8, "trial": 27, "rt": 605, "response": "Beta"}, "20": {"stimulus": 11, "trial": 20, "rt": 766, "response": "Alpha"}, "21": {"stimulus": 38, "trial": 21, "rt": 349, "response": "Beta"}, "22": {"stimulus": 52, "trial": 22, "rt": 392, "response": "Alpha"}, "23": {"stimulus": 71, "trial": 23, "rt": 415, "response": "Alpha"}, "46": {"stimulus": 36, "trial": 46, "rt": 1173, "response": "Beta"}, "47": {"stimulus": 29, "trial": 47, "rt": 492, "response": "Beta"}, "44": {"stimulus": 10, "trial": 44, "rt": 1189, "response": "Beta"}, "45": {"stimulus": 69, "trial": 45, "rt": 706, "response": "Beta"}, "28": {"stimulus": 67, "trial": 28, "rt": 775, "response": "Alpha"}, "29": {"stimulus": 27, "trial": 29, "rt": 530, "response": "Beta"}, "40": {"stimulus": 4, "trial": 40, "rt": 384, "response": "Alpha"}, "41": {"stimulus": 54, "trial": 41, "rt": 318, "response": "Alpha"}, "1": {"stimulus": 17, "trial": 1, "rt": 1006, "response": "Beta"}, "0": {"stimulus": 32, "trial": 0, "rt": 2302, "response": "Alpha"}, "3": {"stimulus": 7, "trial": 3, "rt": 847, "response": "Alpha"}, "2": {"stimulus": 46, "trial": 2, "rt": 935, "response": "Beta"}, "5": {"stimulus": 57, "trial": 5, "rt": 883, "response": "Alpha"}, "4": {"stimulus": 23, "trial": 4, "rt": 791, "response": "Alpha"}, "7": {"stimulus": 55, "trial": 7, "rt": 724, "response": "Beta"}, "6": {"stimulus": 5, "trial": 6, "rt": 810, "response": "Alpha"}, "9": {"stimulus": 6, "trial": 9, "rt": 629, "response": "Beta"}, "8": {"stimulus": 26, "trial": 8, "rt": 845, "response": "Beta"}, "78": {"stimulus": 49, "trial": 78, "rt": 114, "response": "Beta"}, "51": {"stimulus": 18, "trial": 51, "rt": 27358, "response": "Alpha"}, "39": {"stimulus": 47, "trial": 39, "rt": 320, "response": "Beta"}, "65": {"stimulus": 62, "trial": 65, "rt": 252, "response": "Alpha"}, "76": {"stimulus": 2, "trial": 76, "rt": 212, "response": "Beta"}, "75": {"stimulus": 78, "trial": 75, "rt": 153, "response": "Alpha"}, "38": {"stimulus": 37, "trial": 38, "rt": 395, "response": "Beta"}, "73": {"stimulus": 64, "trial": 73, "rt": 156, "response": "Alpha"}, "72": {"stimulus": 80, "trial": 72, "rt": 183, "response": "Alpha"}, "71": {"stimulus": 0, "trial": 71, "rt": 198, "response": "Alpha"}, "70": {"stimulus": 22, "trial": 70, "rt": 184, "response": "Beta"}, "59": {"stimulus": 79, "trial": 59, "rt": 3091, "response": "Beta"}, "79": {"stimulus": 31, "trial": 79, "rt": 115, "response": "Beta"}, "58": {"stimulus": 42, "trial": 58, "rt": 705, "response": "Alpha"}, "11": {"stimulus": 56, "trial": 11, "rt": 1246, "response": "Alpha"}, "10": {"stimulus": 28, "trial": 10, "rt": 1089, "response": "Beta"}, "13": {"stimulus": 40, "trial": 13, "rt": 734, "response": "Alpha"}, "12": {"stimulus": 44, "trial": 12, "rt": 755, "response": "Beta"}, "15": {"stimulus": 16, "trial": 15, "rt": 857, "response": "Beta"}, "14": {"stimulus": 19, "trial": 14, "rt": 881, "response": "Beta"}, "17": {"stimulus": 43, "trial": 17, "rt": 688, "response": "Beta"}, "16": {"stimulus": 3, "trial": 16, "rt": 848, "response": "Alpha"}, "19": {"stimulus": 41, "trial": 19, "rt": 961, "response": "Alpha"}, "18": {"stimulus": 13, "trial": 18, "rt": 761, "response": "Beta"}, "31": {"stimulus": 9, "trial": 31, "rt": 807, "response": "Alpha"}, "30": {"stimulus": 77, "trial": 30, "rt": 688, "response": "Alpha"}, "37": {"stimulus": 34, "trial": 37, "rt": 388, "response": "Alpha"}, "36": {"stimulus": 66, "trial": 36, "rt": 511, "response": "Beta"}, "35": {"stimulus": 68, "trial": 35, "rt": 728, "response": "Beta"}, "34": {"stimulus": 1, "trial": 34, "rt": 591, "response": "Alpha"}, "33": {"stimulus": 70, "trial": 33, "rt": 616, "response": "Beta"}, "55": {"stimulus": 12, "trial": 55, "rt": 461, "response": "Alpha"}, "74": {"stimulus": 50, "trial": 74, "rt": 190, "response": "Alpha"}, "32": {"stimulus": 65, "trial": 32, "rt": 394, "response": "Beta"}, "57": {"stimulus": 72, "trial": 57, "rt": 386, "response": "Beta"}, "50": {"stimulus": 39, "trial": 50, "rt": 802, "response": "Alpha"}}}