{"generation": {"1": {"stimulus": 72, "trial": 1, "rt": 15099}, "0": {"stimulus": 0, "trial": 0, "rt": 28473}, "3": {"stimulus": 8, "trial": 3, "rt": 5052}, "2": {"stimulus": 80, "trial": 2, "rt": 14883}}, "info": {"participant": 22, "exposed": true, "lab": false, "start": 1488822039047, "counterbalance": 1, "condition": "Cluster", "browser": {"platform": "Win32", "userAgent": "Mozilla/5.0 (Windows NT 6.1; WOW64) AppleWebKit/537.36 (KHTML, like Gecko) Chrome/56.0.2924.87 Safari/537.36"}}, "experiment": {"Paradigm": "TACL", "Stimuli": "Size-Color Squares", "Experiment": "Generating-Categories"}, "observation": {"11": {"stimulus": 14, "trial": 11, "rt": 976}, "10": {"stimulus": 34, "trial": 10, "rt": 1341}, "1": {"stimulus": 32, "trial": 1, "rt": 1703}, "0": {"stimulus": 14, "trial": 0, "rt": 3077}, "3": {"stimulus": 16, "trial": 3, "rt": 1450}, "2": {"stimulus": 34, "trial": 2, "rt": 1476}, "5": {"stimulus": 16, "trial": 5, "rt": 1098}, "4": {"stimulus": 32, "trial": 4, "rt": 1574}, "7": {"stimulus": 14, "trial": 7, "rt": 1115}, "6": {"stimulus": 34, "trial": 6, "rt": 1022}, "9": {"stimulus": 16, "trial": 9, "rt": 1167}, "8": {"stimulus": 32, "trial": 8, "rt": 1074}}, "generalization": {"56": {"stimulus": 76, "trial": 56, "rt": 1420, "response": "Beta"}, "77": {"stimulus": 2, "trial": 77, "rt": 2902, "response": "Beta"}, "54": {"stimulus": 37, "trial": 54, "rt": 1090, "response": "Alpha"}, "42": {"stimulus": 26, "trial": 42, "rt": 4760, "response": "Alpha"}, "48": {"stimulus": 51, "trial": 48, "rt": 4440, "response": "Alpha"}, "43": {"stimulus": 66, "trial": 43, "rt": 1336, "response": "Beta"}, "60": {"stimulus": 12, "trial": 60, "rt": 1837, "response": "Beta"}, "61": {"stimulus": 60, "trial": 61, "rt": 1357, "response": "Alpha"}, "62": {"stimulus": 59, "trial": 62, "rt": 2788, "response": "Beta"}, "63": {"stimulus": 3, "trial": 63, "rt": 1281, "response": "Beta"}, "64": {"stimulus": 35, "trial": 64, "rt": 1306, "response": "Alpha"}, "49": {"stimulus": 61, "trial": 49, "rt": 990, "response": "Beta"}, "66": {"stimulus": 34, "trial": 66, "rt": 1090, "response": "Alpha"}, "67": {"stimulus": 5, "trial": 67, "rt": 1121, "response": "Beta"}, "68": {"stimulus": 58, "trial": 68, "rt": 1138, "response": "Beta"}, "69": {"stimulus": 11, "trial": 69, "rt": 1020, "response": "Alpha"}, "80": {"stimulus": 63, "trial": 80, "rt": 975, "response": "Beta"}, "52": {"stimulus": 38, "trial": 52, "rt": 1488, "response": "Alpha"}, "53": {"stimulus": 19, "trial": 53, "rt": 1059, "response": "Alpha"}, "24": {"stimulus": 30, "trial": 24, "rt": 2659, "response": "Alpha"}, "25": {"stimulus": 48, "trial": 25, "rt": 2388, "response": "Alpha"}, "26": {"stimulus": 39, "trial": 26, "rt": 1273, "response": "Alpha"}, "27": {"stimulus": 78, "trial": 27, "rt": 2034, "response": "Beta"}, "20": {"stimulus": 67, "trial": 20, "rt": 1189, "response": "Beta"}, "21": {"stimulus": 24, "trial": 21, "rt": 1322, "response": "Alpha"}, "22": {"stimulus": 64, "trial": 22, "rt": 2634, "response": "Beta"}, "23": {"stimulus": 73, "trial": 23, "rt": 1182, "response": "Beta"}, "46": {"stimulus": 21, "trial": 46, "rt": 4115, "response": "Alpha"}, "47": {"stimulus": 54, "trial": 47, "rt": 1766, "response": "Beta"}, "44": {"stimulus": 50, "trial": 44, "rt": 1883, "response": "Alpha"}, "45": {"stimulus": 47, "trial": 45, "rt": 968, "response": "Alpha"}, "28": {"stimulus": 23, "trial": 28, "rt": 1658, "response": "Alpha"}, "29": {"stimulus": 25, "trial": 29, "rt": 3434, "response": "Alpha"}, "40": {"stimulus": 33, "trial": 40, "rt": 1006, "response": "Alpha"}, "41": {"stimulus": 57, "trial": 41, "rt": 1628, "response": "Beta"}, "1": {"stimulus": 16, "trial": 1, "rt": 1728, "response": "Beta"}, "0": {"stimulus": 41, "trial": 0, "rt": 4184, "response": "Beta"}, "3": {"stimulus": 29, "trial": 3, "rt": 2226, "response": "Beta"}, "2": {"stimulus": 28, "trial": 2, "rt": 8165, "response": "Beta"}, "5": {"stimulus": 56, "trial": 5, "rt": 1520, "response": "Beta"}, "4": {"stimulus": 69, "trial": 4, "rt": 3788, "response": "Beta"}, "7": {"stimulus": 20, "trial": 7, "rt": 2956, "response": "Beta"}, "6": {"stimulus": 68, "trial": 6, "rt": 5921, "response": "Beta"}, "9": {"stimulus": 62, "trial": 9, "rt": 1983, "response": "Beta"}, "8": {"stimulus": 15, "trial": 8, "rt": 2342, "response": "Alpha"}, "78": {"stimulus": 75, "trial": 78, "rt": 998, "response": "Beta"}, "51": {"stimulus": 13, "trial": 51, "rt": 1131, "response": "Alpha"}, "39": {"stimulus": 8, "trial": 39, "rt": 1318, "response": "Beta"}, "65": {"stimulus": 1, "trial": 65, "rt": 4854, "response": "Beta"}, "76": {"stimulus": 27, "trial": 76, "rt": 1483, "response": "Alpha"}, "75": {"stimulus": 77, "trial": 75, "rt": 1190, "response": "Beta"}, "38": {"stimulus": 46, "trial": 38, "rt": 2763, "response": "Alpha"}, "73": {"stimulus": 14, "trial": 73, "rt": 1397, "response": "Alpha"}, "72": {"stimulus": 31, "trial": 72, "rt": 945, "response": "Alpha"}, "71": {"stimulus": 55, "trial": 71, "rt": 1503, "response": "Beta"}, "70": {"stimulus": 22, "trial": 70, "rt": 1068, "response": "Alpha"}, "59": {"stimulus": 52, "trial": 59, "rt": 1250, "response": "Alpha"}, "79": {"stimulus": 7, "trial": 79, "rt": 1589, "response": "Beta"}, "58": {"stimulus": 71, "trial": 58, "rt": 968, "response": "Beta"}, "11": {"stimulus": 43, "trial": 11, "rt": 1849, "response": "Alpha"}, "10": {"stimulus": 4, "trial": 10, "rt": 2166, "response": "Beta"}, "13": {"stimulus": 53, "trial": 13, "rt": 3280, "response": "Alpha"}, "12": {"stimulus": 74, "trial": 12, "rt": 5062, "response": "Beta"}, "15": {"stimulus": 44, "trial": 15, "rt": 1925, "response": "Alpha"}, "14": {"stimulus": 6, "trial": 14, "rt": 2881, "response": "Beta"}, "17": {"stimulus": 49, "trial": 17, "rt": 9801, "response": "Alpha"}, "16": {"stimulus": 79, "trial": 16, "rt": 2441, "response": "Beta"}, "19": {"stimulus": 42, "trial": 19, "rt": 5175, "response": "Alpha"}, "18": {"stimulus": 80, "trial": 18, "rt": 1498, "response": "Beta"}, "31": {"stimulus": 17, "trial": 31, "rt": 18724, "response": "Alpha"}, "30": {"stimulus": 32, "trial": 30, "rt": 1442, "response": "Alpha"}, "37": {"stimulus": 40, "trial": 37, "rt": 838, "response": "Alpha"}, "36": {"stimulus": 18, "trial": 36, "rt": 9348, "response": "Alpha"}, "35": {"stimulus": 65, "trial": 35, "rt": 1703, "response": "Beta"}, "34": {"stimulus": 36, "trial": 34, "rt": 3418, "response": "Alpha"}, "33": {"stimulus": 0, "trial": 33, "rt": 2281, "response": "Beta"}, "55": {"stimulus": 9, "trial": 55, "rt": 1995, "response": "Alpha"}, "74": {"stimulus": 45, "trial": 74, "rt": 2772, "response": "Beta"}, "32": {"stimulus": 10, "trial": 32, "rt": 15334, "response": "Alpha"}, "57": {"stimulus": 70, "trial": 57, "rt": 814, "response": "Beta"}, "50": {"stimulus": 72, "trial": 50, "rt": 1296, "response": "Beta"}}}96, "response": "Beta"}}}