{"generation": {"1": {"stimulus": 63, "trial": 1, "rt": 8040}, "0": {"stimulus": 71, "trial": 0, "rt": 34148}, "3": {"stimulus": 66, "trial": 3, "rt": 7599}, "2": {"stimulus": 68, "trial": 2, "rt": 15300}}, "info": {"finish": 1488823410841, "participant": 221, "exposed": true, "lab": false, "start": 1488823010777, "counterbalance": 3, "condition": "Row", "browser": {"platform": "Win32", "userAgent": "Mozilla/5.0 (Windows NT 6.3; WOW64; rv:51.0) Gecko/20100101 Firefox/51.0"}}, "experiment": {"Paradigm": "TACL", "Stimuli": "Size-Color Squares", "Experiment": "Generating-Categories"}, "observation": {"11": {"stimulus": 10, "trial": 11, "rt": 6903}, "10": {"stimulus": 16, "trial": 10, "rt": 4025}, "1": {"stimulus": 10, "trial": 1, "rt": 5808}, "0": {"stimulus": 16, "trial": 0, "rt": 3981}, "3": {"stimulus": 12, "trial": 3, "rt": 2942}, "2": {"stimulus": 14, "trial": 2, "rt": 5413}, "5": {"stimulus": 12, "trial": 5, "rt": 6743}, "4": {"stimulus": 14, "trial": 4, "rt": 3129}, "7": {"stimulus": 16, "trial": 7, "rt": 4279}, "6": {"stimulus": 10, "trial": 6, "rt": 4808}, "9": {"stimulus": 14, "trial": 9, "rt": 2928}, "8": {"stimulus": 12, "trial": 8, "rt": 3604}}, "generalization": {"56": {"stimulus": 68, "trial": 56, "rt": 1340, "response": "Beta"}, "77": {"stimulus": 14, "trial": 77, "rt": 1610, "response": "Alpha"}, "54": {"stimulus": 37, "trial": 54, "rt": 655, "response": "Beta"}, "42": {"stimulus": 62, "trial": 42, "rt": 950, "response": "Beta"}, "48": {"stimulus": 30, "trial": 48, "rt": 6698, "response": "Beta"}, "43": {"stimulus": 2, "trial": 43, "rt": 1436, "response": "Alpha"}, "60": {"stimulus": 17, "trial": 60, "rt": 1209, "response": "Alpha"}, "61": {"stimulus": 4, "trial": 61, "rt": 556, "response": "Alpha"}, "62": {"stimulus": 53, "trial": 62, "rt": 1198, "response": "Beta"}, "63": {"stimulus": 44, "trial": 63, "rt": 476, "response": "Beta"}, "64": {"stimulus": 35, "trial": 64, "rt": 658, "response": "Beta"}, "49": {"stimulus": 64, "trial": 49, "rt": 878, "response": "Beta"}, "66": {"stimulus": 76, "trial": 66, "rt": 1141, "response": "Beta"}, "67": {"stimulus": 12, "trial": 67, "rt": 971, "response": "Alpha"}, "68": {"stimulus": 22, "trial": 68, "rt": 578, "response": "Alpha"}, "69": {"stimulus": 8, "trial": 69, "rt": 1681, "response": "Alpha"}, "80": {"stimulus": 47, "trial": 80, "rt": 1195, "response": "Beta"}, "52": {"stimulus": 36, "trial": 52, "rt": 681, "response": "Beta"}, "53": {"stimulus": 18, "trial": 53, "rt": 1336, "response": "Beta"}, "24": {"stimulus": 40, "trial": 24, "rt": 1097, "response": "Alpha"}, "25": {"stimulus": 6, "trial": 25, "rt": 765, "response": "Alpha"}, "26": {"stimulus": 29, "trial": 26, "rt": 4289, "response": "Beta"}, "27": {"stimulus": 63, "trial": 27, "rt": 601, "response": "Beta"}, "20": {"stimulus": 16, "trial": 20, "rt": 928, "response": "Alpha"}, "21": {"stimulus": 20, "trial": 21, "rt": 666, "response": "Alpha"}, "22": {"stimulus": 38, "trial": 22, "rt": 2356, "response": "Beta"}, "23": {"stimulus": 7, "trial": 23, "rt": 1444, "response": "Alpha"}, "46": {"stimulus": 11, "trial": 46, "rt": 1119, "response": "Alpha"}, "47": {"stimulus": 0, "trial": 47, "rt": 624, "response": "Alpha"}, "44": {"stimulus": 72, "trial": 44, "rt": 970, "response": "Beta"}, "45": {"stimulus": 65, "trial": 45, "rt": 747, "response": "Beta"}, "28": {"stimulus": 10, "trial": 28, "rt": 1036, "response": "Alpha"}, "29": {"stimulus": 58, "trial": 29, "rt": 1204, "response": "Beta"}, "40": {"stimulus": 15, "trial": 40, "rt": 815, "response": "Alpha"}, "41": {"stimulus": 80, "trial": 41, "rt": 1728, "response": "Beta"}, "1": {"stimulus": 75, "trial": 1, "rt": 2161, "response": "Beta"}, "0": {"stimulus": 25, "trial": 0, "rt": 2490, "response": "Alpha"}, "3": {"stimulus": 23, "trial": 3, "rt": 1230, "response": "Alpha"}, "2": {"stimulus": 48, "trial": 2, "rt": 2650, "response": "Beta"}, "5": {"stimulus": 19, "trial": 5, "rt": 2625, "response": "Alpha"}, "4": {"stimulus": 39, "trial": 4, "rt": 3093, "response": "Beta"}, "7": {"stimulus": 78, "trial": 7, "rt": 905, "response": "Beta"}, "6": {"stimulus": 43, "trial": 6, "rt": 6929, "response": "Beta"}, "9": {"stimulus": 61, "trial": 9, "rt": 1141, "response": "Beta"}, "8": {"stimulus": 28, "trial": 8, "rt": 1837, "response": "Beta"}, "78": {"stimulus": 24, "trial": 78, "rt": 734, "response": "Alpha"}, "51": {"stimulus": 27, "trial": 51, "rt": 871, "response": "Beta"}, "39": {"stimulus": 5, "trial": 39, "rt": 1182, "response": "Alpha"}, "65": {"stimulus": 34, "trial": 65, "rt": 743, "response": "Beta"}, "76": {"stimulus": 60, "trial": 76, "rt": 900, "response": "Beta"}, "75": {"stimulus": 3, "trial": 75, "rt": 664, "response": "Alpha"}, "38": {"stimulus": 74, "trial": 38, "rt": 627, "response": "Beta"}, "73": {"stimulus": 52, "trial": 73, "rt": 692, "response": "Beta"}, "72": {"stimulus": 26, "trial": 72, "rt": 2546, "response": "Beta"}, "71": {"stimulus": 57, "trial": 71, "rt": 589, "response": "Beta"}, "70": {"stimulus": 32, "trial": 70, "rt": 7711, "response": "Beta"}, "59": {"stimulus": 50, "trial": 59, "rt": 600, "response": "Beta"}, "79": {"stimulus": 54, "trial": 79, "rt": 1094, "response": "Beta"}, "58": {"stimulus": 59, "trial": 58, "rt": 849, "response": "Beta"}, "11": {"stimulus": 73, "trial": 11, "rt": 1882, "response": "Beta"}, "10": {"stimulus": 71, "trial": 10, "rt": 1027, "response": "Beta"}, "13": {"stimulus": 42, "trial": 13, "rt": 1454, "response": "Alpha"}, "12": {"stimulus": 33, "trial": 12, "rt": 3704, "response": "Alpha"}, "15": {"stimulus": 51, "trial": 15, "rt": 781, "response": "Beta"}, "14": {"stimulus": 45, "trial": 14, "rt": 1569, "response": "Beta"}, "17": {"stimulus": 46, "trial": 17, "rt": 932, "response": "Beta"}, "16": {"stimulus": 69, "trial": 16, "rt": 824, "response": "Beta"}, "19": {"stimulus": 21, "trial": 19, "rt": 1173, "response": "Alpha"}, "18": {"stimulus": 67, "trial": 18, "rt": 891, "response": "Beta"}, "31": {"stimulus": 70, "trial": 31, "rt": 679, "response": "Beta"}, "30": {"stimulus": 55, "trial": 30, "rt": 725, "response": "Beta"}, "37": {"stimulus": 41, "trial": 37, "rt": 847, "response": "Beta"}, "36": {"stimulus": 49, "trial": 36, "rt": 837, "response": "Beta"}, "35": {"stimulus": 77, "trial": 35, "rt": 1123, "response": "Beta"}, "34": {"stimulus": 9, "trial": 34, "rt": 1111, "response": "Alpha"}, "33": {"stimulus": 66, "trial": 33, "rt": 635, "response": "Beta"}, "55": {"stimulus": 1, "trial": 55, "rt": 1478, "response": "Alpha"}, "74": {"stimulus": 13, "trial": 74, "rt": 870, "response": "Alpha"}, "32": {"stimulus": 79, "trial": 32, "rt": 802, "response": "Beta"}, "57": {"stimulus": 31, "trial": 57, "rt": 1151, "response": "Beta"}, "50": {"stimulus": 56, "trial": 50, "rt": 593, "response": "Beta"}}}