{"generation": {"1": {"stimulus": 35, "trial": 1, "rt": 5761}, "0": {"stimulus": 17, "trial": 0, "rt": 13894}, "3": {"stimulus": 8, "trial": 3, "rt": 4807}, "2": {"stimulus": 26, "trial": 2, "rt": 4441}}, "info": {"finish": 1488823182358, "participant": 223, "exposed": true, "lab": false, "start": 1488823010325, "counterbalance": 3, "condition": "Cluster", "browser": {"platform": "Win32", "userAgent": "Mozilla/5.0 (Windows NT 10.0; Win64; x64) AppleWebKit/537.36 (KHTML, like Gecko) Chrome/56.0.2924.87 Safari/537.36"}}, "experiment": {"Paradigm": "TACL", "Stimuli": "Size-Color Squares", "Experiment": "Generating-Categories"}, "observation": {"11": {"stimulus": 32, "trial": 11, "rt": 843}, "10": {"stimulus": 34, "trial": 10, "rt": 841}, "1": {"stimulus": 32, "trial": 1, "rt": 1047}, "0": {"stimulus": 16, "trial": 0, "rt": 2049}, "3": {"stimulus": 34, "trial": 3, "rt": 1090}, "2": {"stimulus": 14, "trial": 2, "rt": 872}, "5": {"stimulus": 32, "trial": 5, "rt": 1101}, "4": {"stimulus": 16, "trial": 4, "rt": 846}, "7": {"stimulus": 34, "trial": 7, "rt": 1406}, "6": {"stimulus": 14, "trial": 6, "rt": 770}, "9": {"stimulus": 14, "trial": 9, "rt": 936}, "8": {"stimulus": 16, "trial": 8, "rt": 847}}, "generalization": {"56": {"stimulus": 28, "trial": 56, "rt": 546, "response": "Alpha"}, "77": {"stimulus": 22, "trial": 77, "rt": 707, "response": "Alpha"}, "54": {"stimulus": 6, "trial": 54, "rt": 888, "response": "Alpha"}, "42": {"stimulus": 25, "trial": 42, "rt": 465, "response": "Beta"}, "48": {"stimulus": 33, "trial": 48, "rt": 890, "response": "Alpha"}, "43": {"stimulus": 79, "trial": 43, "rt": 636, "response": "Beta"}, "60": {"stimulus": 11, "trial": 60, "rt": 573, "response": "Alpha"}, "61": {"stimulus": 52, "trial": 61, "rt": 843, "response": "Beta"}, "62": {"stimulus": 27, "trial": 62, "rt": 528, "response": "Alpha"}, "63": {"stimulus": 20, "trial": 63, "rt": 1348, "response": "Alpha"}, "64": {"stimulus": 23, "trial": 64, "rt": 886, "response": "Alpha"}, "49": {"stimulus": 51, "trial": 49, "rt": 629, "response": "Beta"}, "66": {"stimulus": 31, "trial": 66, "rt": 897, "response": "Alpha"}, "67": {"stimulus": 71, "trial": 67, "rt": 572, "response": "Beta"}, "68": {"stimulus": 78, "trial": 68, "rt": 548, "response": "Beta"}, "69": {"stimulus": 48, "trial": 69, "rt": 563, "response": "Alpha"}, "80": {"stimulus": 77, "trial": 80, "rt": 620, "response": "Alpha"}, "52": {"stimulus": 75, "trial": 52, "rt": 572, "response": "Alpha"}, "53": {"stimulus": 74, "trial": 53, "rt": 514, "response": "Alpha"}, "24": {"stimulus": 59, "trial": 24, "rt": 1103, "response": "Beta"}, "25": {"stimulus": 53, "trial": 25, "rt": 635, "response": "Beta"}, "26": {"stimulus": 34, "trial": 26, "rt": 497, "response": "Beta"}, "27": {"stimulus": 65, "trial": 27, "rt": 553, "response": "Alpha"}, "20": {"stimulus": 21, "trial": 20, "rt": 503, "response": "Alpha"}, "21": {"stimulus": 68, "trial": 21, "rt": 992, "response": "Beta"}, "22": {"stimulus": 19, "trial": 22, "rt": 531, "response": "Alpha"}, "23": {"stimulus": 4, "trial": 23, "rt": 1075, "response": "Alpha"}, "46": {"stimulus": 69, "trial": 46, "rt": 561, "response": "Beta"}, "47": {"stimulus": 62, "trial": 47, "rt": 609, "response": "Beta"}, "44": {"stimulus": 9, "trial": 44, "rt": 489, "response": "Alpha"}, "45": {"stimulus": 64, "trial": 45, "rt": 558, "response": "Alpha"}, "28": {"stimulus": 14, "trial": 28, "rt": 774, "response": "Alpha"}, "29": {"stimulus": 70, "trial": 29, "rt": 628, "response": "Beta"}, "40": {"stimulus": 17, "trial": 40, "rt": 509, "response": "Beta"}, "41": {"stimulus": 73, "trial": 41, "rt": 451, "response": "Alpha"}, "1": {"stimulus": 49, "trial": 1, "rt": 823, "response": "Alpha"}, "0": {"stimulus": 30, "trial": 0, "rt": 2720, "response": "Alpha"}, "3": {"stimulus": 29, "trial": 3, "rt": 740, "response": "Alpha"}, "2": {"stimulus": 67, "trial": 2, "rt": 1231, "response": "Alpha"}, "5": {"stimulus": 7, "trial": 5, "rt": 782, "response": "Beta"}, "4": {"stimulus": 58, "trial": 4, "rt": 900, "response": "Alpha"}, "7": {"stimulus": 72, "trial": 7, "rt": 794, "response": "Alpha"}, "6": {"stimulus": 24, "trial": 6, "rt": 1369, "response": "Beta"}, "9": {"stimulus": 13, "trial": 9, "rt": 976, "response": "Alpha"}, "8": {"stimulus": 43, "trial": 8, "rt": 596, "response": "Beta"}, "78": {"stimulus": 5, "trial": 78, "rt": 900, "response": "Alpha"}, "51": {"stimulus": 44, "trial": 51, "rt": 614, "response": "Beta"}, "39": {"stimulus": 12, "trial": 39, "rt": 562, "response": "Alpha"}, "65": {"stimulus": 54, "trial": 65, "rt": 540, "response": "Alpha"}, "76": {"stimulus": 3, "trial": 76, "rt": 600, "response": "Alpha"}, "75": {"stimulus": 18, "trial": 75, "rt": 1138, "response": "Alpha"}, "38": {"stimulus": 26, "trial": 38, "rt": 574, "response": "Beta"}, "73": {"stimulus": 46, "trial": 73, "rt": 602, "response": "Alpha"}, "72": {"stimulus": 50, "trial": 72, "rt": 1270, "response": "Alpha"}, "71": {"stimulus": 16, "trial": 71, "rt": 664, "response": "Beta"}, "70": {"stimulus": 41, "trial": 70, "rt": 888, "response": "Alpha"}, "59": {"stimulus": 55, "trial": 59, "rt": 676, "response": "Alpha"}, "79": {"stimulus": 66, "trial": 79, "rt": 730, "response": "Alpha"}, "58": {"stimulus": 40, "trial": 58, "rt": 710, "response": "Alpha"}, "11": {"stimulus": 8, "trial": 11, "rt": 531, "response": "Beta"}, "10": {"stimulus": 1, "trial": 10, "rt": 675, "response": "Alpha"}, "13": {"stimulus": 45, "trial": 13, "rt": 687, "response": "Alpha"}, "12": {"stimulus": 37, "trial": 12, "rt": 610, "response": "Alpha"}, "15": {"stimulus": 36, "trial": 15, "rt": 560, "response": "Alpha"}, "14": {"stimulus": 10, "trial": 14, "rt": 669, "response": "Alpha"}, "17": {"stimulus": 63, "trial": 17, "rt": 617, "response": "Alpha"}, "16": {"stimulus": 35, "trial": 16, "rt": 619, "response": "Beta"}, "19": {"stimulus": 47, "trial": 19, "rt": 662, "response": "Alpha"}, "18": {"stimulus": 32, "trial": 18, "rt": 1055, "response": "Alpha"}, "31": {"stimulus": 15, "trial": 31, "rt": 1083, "response": "Beta"}, "30": {"stimulus": 39, "trial": 30, "rt": 528, "response": "Alpha"}, "37": {"stimulus": 76, "trial": 37, "rt": 497, "response": "Alpha"}, "36": {"stimulus": 0, "trial": 36, "rt": 458, "response": "Alpha"}, "35": {"stimulus": 80, "trial": 35, "rt": 538, "response": "Beta"}, "34": {"stimulus": 57, "trial": 34, "rt": 429, "response": "Alpha"}, "33": {"stimulus": 38, "trial": 33, "rt": 436, "response": "Alpha"}, "55": {"stimulus": 42, "trial": 55, "rt": 697, "response": "Alpha"}, "74": {"stimulus": 60, "trial": 74, "rt": 1024, "response": "Alpha"}, "32": {"stimulus": 56, "trial": 32, "rt": 624, "response": "Alpha"}, "57": {"stimulus": 61, "trial": 57, "rt": 599, "response": "Beta"}, "50": {"stimulus": 2, "trial": 50, "rt": 894, "response": "Alpha"}}}