{"generation": {"1": {"stimulus": 72, "trial": 1, "rt": 18968}, "0": {"stimulus": 80, "trial": 0, "rt": 26677}, "3": {"stimulus": 8, "trial": 3, "rt": 8160}, "2": {"stimulus": 0, "trial": 2, "rt": 8011}}, "info": {"finish": 1488823656253, "participant": 225, "exposed": true, "lab": false, "start": 1488823010901, "counterbalance": 6, "condition": "Row", "browser": {"platform": "Linux x86_64", "userAgent": "Mozilla/5.0 (X11; CrOS x86_64 9000.91.0) AppleWebKit/537.36 (KHTML, like Gecko) Chrome/56.0.2924.110 Safari/537.36"}}, "experiment": {"Paradigm": "TACL", "Stimuli": "Size-Color Squares", "Experiment": "Generating-Categories"}, "observation": {"11": {"stimulus": 16, "trial": 11, "rt": 2094}, "10": {"stimulus": 14, "trial": 10, "rt": 2040}, "1": {"stimulus": 12, "trial": 1, "rt": 2889}, "0": {"stimulus": 10, "trial": 0, "rt": 4877}, "3": {"stimulus": 14, "trial": 3, "rt": 2897}, "2": {"stimulus": 16, "trial": 2, "rt": 1997}, "5": {"stimulus": 14, "trial": 5, "rt": 2336}, "4": {"stimulus": 10, "trial": 4, "rt": 3654}, "7": {"stimulus": 16, "trial": 7, "rt": 2339}, "6": {"stimulus": 12, "trial": 6, "rt": 1781}, "9": {"stimulus": 12, "trial": 9, "rt": 2481}, "8": {"stimulus": 10, "trial": 8, "rt": 1939}}, "generalization": {"56": {"stimulus": 59, "trial": 56, "rt": 4834, "response": "Alpha"}, "77": {"stimulus": 54, "trial": 77, "rt": 2453, "response": "Alpha"}, "54": {"stimulus": 52, "trial": 54, "rt": 1912, "response": "Alpha"}, "42": {"stimulus": 44, "trial": 42, "rt": 2224, "response": "Alpha"}, "48": {"stimulus": 10, "trial": 48, "rt": 1278, "response": "Beta"}, "43": {"stimulus": 3, "trial": 43, "rt": 1124, "response": "Beta"}, "60": {"stimulus": 30, "trial": 60, "rt": 1013, "response": "Alpha"}, "61": {"stimulus": 14, "trial": 61, "rt": 1769, "response": "Alpha"}, "62": {"stimulus": 34, "trial": 62, "rt": 878, "response": "Alpha"}, "63": {"stimulus": 36, "trial": 63, "rt": 1460, "response": "Alpha"}, "64": {"stimulus": 72, "trial": 64, "rt": 986, "response": "Beta"}, "49": {"stimulus": 63, "trial": 49, "rt": 967, "response": "Beta"}, "66": {"stimulus": 40, "trial": 66, "rt": 791, "response": "Alpha"}, "67": {"stimulus": 19, "trial": 67, "rt": 1689, "response": "Beta"}, "68": {"stimulus": 45, "trial": 68, "rt": 1641, "response": "Alpha"}, "69": {"stimulus": 53, "trial": 69, "rt": 1414, "response": "Alpha"}, "80": {"stimulus": 47, "trial": 80, "rt": 1065, "response": "Alpha"}, "52": {"stimulus": 32, "trial": 52, "rt": 1384, "response": "Alpha"}, "53": {"stimulus": 20, "trial": 53, "rt": 1311, "response": "Beta"}, "24": {"stimulus": 71, "trial": 24, "rt": 989, "response": "Beta"}, "25": {"stimulus": 61, "trial": 25, "rt": 1299, "response": "Beta"}, "26": {"stimulus": 74, "trial": 26, "rt": 1508, "response": "Beta"}, "27": {"stimulus": 35, "trial": 27, "rt": 4630, "response": "Alpha"}, "20": {"stimulus": 37, "trial": 20, "rt": 1939, "response": "Alpha"}, "21": {"stimulus": 23, "trial": 21, "rt": 1487, "response": "Alpha"}, "22": {"stimulus": 13, "trial": 22, "rt": 2139, "response": "Alpha"}, "23": {"stimulus": 77, "trial": 23, "rt": 1465, "response": "Beta"}, "46": {"stimulus": 5, "trial": 46, "rt": 5764, "response": "Alpha"}, "47": {"stimulus": 60, "trial": 47, "rt": 2259, "response": "Alpha"}, "44": {"stimulus": 27, "trial": 44, "rt": 1864, "response": "Beta"}, "45": {"stimulus": 39, "trial": 45, "rt": 3022, "response": "Alpha"}, "28": {"stimulus": 0, "trial": 28, "rt": 1616, "response": "Beta"}, "29": {"stimulus": 62, "trial": 29, "rt": 1357, "response": "Alpha"}, "40": {"stimulus": 58, "trial": 40, "rt": 2055, "response": "Alpha"}, "41": {"stimulus": 65, "trial": 41, "rt": 1180, "response": "Beta"}, "1": {"stimulus": 2, "trial": 1, "rt": 1590, "response": "Beta"}, "0": {"stimulus": 31, "trial": 0, "rt": 3276, "response": "Alpha"}, "3": {"stimulus": 56, "trial": 3, "rt": 1909, "response": "Beta"}, "2": {"stimulus": 76, "trial": 2, "rt": 1367, "response": "Beta"}, "5": {"stimulus": 26, "trial": 5, "rt": 2969, "response": "Alpha"}, "4": {"stimulus": 15, "trial": 4, "rt": 5895, "response": "Alpha"}, "7": {"stimulus": 67, "trial": 7, "rt": 1266, "response": "Beta"}, "6": {"stimulus": 21, "trial": 6, "rt": 1673, "response": "Alpha"}, "9": {"stimulus": 46, "trial": 9, "rt": 4090, "response": "Beta"}, "8": {"stimulus": 68, "trial": 8, "rt": 1985, "response": "Beta"}, "78": {"stimulus": 9, "trial": 78, "rt": 1050, "response": "Beta"}, "51": {"stimulus": 75, "trial": 51, "rt": 1234, "response": "Alpha"}, "39": {"stimulus": 6, "trial": 39, "rt": 1968, "response": "Alpha"}, "65": {"stimulus": 48, "trial": 65, "rt": 1812, "response": "Alpha"}, "76": {"stimulus": 12, "trial": 76, "rt": 2135, "response": "Alpha"}, "75": {"stimulus": 33, "trial": 75, "rt": 876, "response": "Alpha"}, "38": {"stimulus": 80, "trial": 38, "rt": 1880, "response": "Beta"}, "73": {"stimulus": 66, "trial": 73, "rt": 1280, "response": "Alpha"}, "72": {"stimulus": 38, "trial": 72, "rt": 4842, "response": "Alpha"}, "71": {"stimulus": 4, "trial": 71, "rt": 2692, "response": "Alpha"}, "70": {"stimulus": 22, "trial": 70, "rt": 2612, "response": "Alpha"}, "59": {"stimulus": 24, "trial": 59, "rt": 1527, "response": "Alpha"}, "79": {"stimulus": 28, "trial": 79, "rt": 1705, "response": "Alpha"}, "58": {"stimulus": 55, "trial": 58, "rt": 7844, "response": "Alpha"}, "11": {"stimulus": 7, "trial": 11, "rt": 1431, "response": "Alpha"}, "10": {"stimulus": 1, "trial": 10, "rt": 2865, "response": "Alpha"}, "13": {"stimulus": 25, "trial": 13, "rt": 1681, "response": "Alpha"}, "12": {"stimulus": 73, "trial": 12, "rt": 1455, "response": "Beta"}, "15": {"stimulus": 8, "trial": 15, "rt": 3075, "response": "Alpha"}, "14": {"stimulus": 43, "trial": 14, "rt": 1045, "response": "Alpha"}, "17": {"stimulus": 18, "trial": 17, "rt": 1611, "response": "Alpha"}, "16": {"stimulus": 11, "trial": 16, "rt": 2013, "response": "Beta"}, "19": {"stimulus": 57, "trial": 19, "rt": 1797, "response": "Alpha"}, "18": {"stimulus": 41, "trial": 18, "rt": 1334, "response": "Alpha"}, "31": {"stimulus": 17, "trial": 31, "rt": 1536, "response": "Beta"}, "30": {"stimulus": 70, "trial": 30, "rt": 1525, "response": "Alpha"}, "37": {"stimulus": 79, "trial": 37, "rt": 951, "response": "Beta"}, "36": {"stimulus": 51, "trial": 36, "rt": 1152, "response": "Beta"}, "35": {"stimulus": 78, "trial": 35, "rt": 1507, "response": "Beta"}, "34": {"stimulus": 16, "trial": 34, "rt": 1100, "response": "Beta"}, "33": {"stimulus": 42, "trial": 33, "rt": 1368, "response": "Alpha"}, "55": {"stimulus": 50, "trial": 55, "rt": 1276, "response": "Alpha"}, "74": {"stimulus": 69, "trial": 74, "rt": 1902, "response": "Alpha"}, "32": {"stimulus": 29, "trial": 32, "rt": 1611, "response": "Alpha"}, "57": {"stimulus": 49, "trial": 57, "rt": 1565, "response": "Alpha"}, "50": {"stimulus": 64, "trial": 50, "rt": 1247, "response": "Beta"}}}