{"generation": {"1": {"stimulus": 73, "trial": 1, "rt": 6965}, "0": {"stimulus": 72, "trial": 0, "rt": 15586}, "3": {"stimulus": 65, "trial": 3, "rt": 11615}, "2": {"stimulus": 63, "trial": 2, "rt": 6268}}, "info": {"finish": 1488823604794, "participant": 226, "exposed": true, "lab": false, "start": 1488823014592, "counterbalance": 0, "condition": "Cluster", "browser": {"platform": "Win32", "userAgent": "Mozilla/5.0 (Windows NT 6.3; WOW64) AppleWebKit/537.36 (KHTML, like Gecko) Chrome/56.0.2924.87 Safari/537.36"}}, "experiment": {"Paradigm": "TACL", "Stimuli": "Size-Color Squares", "Experiment": "Generating-Categories"}, "observation": {"11": {"stimulus": 34, "trial": 11, "rt": 1156}, "10": {"stimulus": 14, "trial": 10, "rt": 1167}, "1": {"stimulus": 34, "trial": 1, "rt": 1552}, "0": {"stimulus": 16, "trial": 0, "rt": 2917}, "3": {"stimulus": 14, "trial": 3, "rt": 1563}, "2": {"stimulus": 32, "trial": 2, "rt": 1665}, "5": {"stimulus": 34, "trial": 5, "rt": 1354}, "4": {"stimulus": 16, "trial": 4, "rt": 1747}, "7": {"stimulus": 32, "trial": 7, "rt": 1441}, "6": {"stimulus": 14, "trial": 6, "rt": 1431}, "9": {"stimulus": 32, "trial": 9, "rt": 1136}, "8": {"stimulus": 16, "trial": 8, "rt": 1202}}, "generalization": {"56": {"stimulus": 41, "trial": 56, "rt": 1126, "response": "Alpha"}, "77": {"stimulus": 53, "trial": 77, "rt": 937, "response": "Alpha"}, "54": {"stimulus": 28, "trial": 54, "rt": 1339, "response": "Beta"}, "42": {"stimulus": 5, "trial": 42, "rt": 921, "response": "Alpha"}, "48": {"stimulus": 45, "trial": 48, "rt": 1314, "response": "Beta"}, "43": {"stimulus": 50, "trial": 43, "rt": 850, "response": "Alpha"}, "60": {"stimulus": 23, "trial": 60, "rt": 1202, "response": "Alpha"}, "61": {"stimulus": 21, "trial": 61, "rt": 1038, "response": "Alpha"}, "62": {"stimulus": 58, "trial": 62, "rt": 1131, "response": "Alpha"}, "63": {"stimulus": 36, "trial": 63, "rt": 1468, "response": "Beta"}, "64": {"stimulus": 12, "trial": 64, "rt": 1693, "response": "Beta"}, "49": {"stimulus": 40, "trial": 49, "rt": 1432, "response": "Alpha"}, "66": {"stimulus": 63, "trial": 66, "rt": 1196, "response": "Beta"}, "67": {"stimulus": 4, "trial": 67, "rt": 1535, "response": "Alpha"}, "68": {"stimulus": 8, "trial": 68, "rt": 871, "response": "Alpha"}, "69": {"stimulus": 47, "trial": 69, "rt": 1582, "response": "Alpha"}, "80": {"stimulus": 56, "trial": 80, "rt": 1381, "response": "Beta"}, "52": {"stimulus": 19, "trial": 52, "rt": 1463, "response": "Beta"}, "53": {"stimulus": 52, "trial": 53, "rt": 1341, "response": "Alpha"}, "24": {"stimulus": 57, "trial": 24, "rt": 984, "response": "Alpha"}, "25": {"stimulus": 67, "trial": 25, "rt": 815, "response": "Alpha"}, "26": {"stimulus": 35, "trial": 26, "rt": 1002, "response": "Alpha"}, "27": {"stimulus": 10, "trial": 27, "rt": 2081, "response": "Beta"}, "20": {"stimulus": 61, "trial": 20, "rt": 1298, "response": "Alpha"}, "21": {"stimulus": 13, "trial": 21, "rt": 978, "response": "Alpha"}, "22": {"stimulus": 49, "trial": 22, "rt": 957, "response": "Alpha"}, "23": {"stimulus": 2, "trial": 23, "rt": 933, "response": "Alpha"}, "46": {"stimulus": 66, "trial": 46, "rt": 1790, "response": "Alpha"}, "47": {"stimulus": 59, "trial": 47, "rt": 850, "response": "Alpha"}, "44": {"stimulus": 60, "trial": 44, "rt": 851, "response": "Alpha"}, "45": {"stimulus": 31, "trial": 45, "rt": 868, "response": "Alpha"}, "28": {"stimulus": 27, "trial": 28, "rt": 917, "response": "Beta"}, "29": {"stimulus": 80, "trial": 29, "rt": 1216, "response": "Alpha"}, "40": {"stimulus": 73, "trial": 40, "rt": 1420, "response": "Beta"}, "41": {"stimulus": 15, "trial": 41, "rt": 1962, "response": "Alpha"}, "1": {"stimulus": 42, "trial": 1, "rt": 1748, "response": "Alpha"}, "0": {"stimulus": 65, "trial": 0, "rt": 2037, "response": "Beta"}, "3": {"stimulus": 54, "trial": 3, "rt": 843, "response": "Beta"}, "2": {"stimulus": 64, "trial": 2, "rt": 1333, "response": "Beta"}, "5": {"stimulus": 48, "trial": 5, "rt": 1167, "response": "Alpha"}, "4": {"stimulus": 46, "trial": 4, "rt": 832, "response": "Beta"}, "7": {"stimulus": 43, "trial": 7, "rt": 1324, "response": "Alpha"}, "6": {"stimulus": 55, "trial": 6, "rt": 1384, "response": "Beta"}, "9": {"stimulus": 71, "trial": 9, "rt": 1363, "response": "Alpha"}, "8": {"stimulus": 18, "trial": 8, "rt": 3288, "response": "Beta"}, "78": {"stimulus": 51, "trial": 78, "rt": 850, "response": "Alpha"}, "51": {"stimulus": 17, "trial": 51, "rt": 3509, "response": "Alpha"}, "39": {"stimulus": 38, "trial": 39, "rt": 922, "response": "Alpha"}, "65": {"stimulus": 33, "trial": 65, "rt": 1082, "response": "Alpha"}, "76": {"stimulus": 44, "trial": 76, "rt": 1295, "response": "Alpha"}, "75": {"stimulus": 1, "trial": 75, "rt": 1664, "response": "Beta"}, "38": {"stimulus": 77, "trial": 38, "rt": 794, "response": "Alpha"}, "73": {"stimulus": 70, "trial": 73, "rt": 743, "response": "Alpha"}, "72": {"stimulus": 69, "trial": 72, "rt": 756, "response": "Alpha"}, "71": {"stimulus": 68, "trial": 71, "rt": 1341, "response": "Alpha"}, "70": {"stimulus": 74, "trial": 70, "rt": 1242, "response": "Beta"}, "59": {"stimulus": 9, "trial": 59, "rt": 1183, "response": "Beta"}, "79": {"stimulus": 22, "trial": 79, "rt": 2110, "response": "Alpha"}, "58": {"stimulus": 7, "trial": 58, "rt": 1090, "response": "Alpha"}, "11": {"stimulus": 37, "trial": 11, "rt": 1423, "response": "Beta"}, "10": {"stimulus": 62, "trial": 10, "rt": 1079, "response": "Alpha"}, "13": {"stimulus": 24, "trial": 13, "rt": 3628, "response": "Alpha"}, "12": {"stimulus": 6, "trial": 12, "rt": 16623, "response": "Beta"}, "15": {"stimulus": 25, "trial": 15, "rt": 1193, "response": "Alpha"}, "14": {"stimulus": 72, "trial": 14, "rt": 1376, "response": "Beta"}, "17": {"stimulus": 3, "trial": 17, "rt": 1505, "response": "Alpha"}, "16": {"stimulus": 75, "trial": 16, "rt": 1902, "response": "Beta"}, "19": {"stimulus": 30, "trial": 19, "rt": 826, "response": "Alpha"}, "18": {"stimulus": 20, "trial": 18, "rt": 884, "response": "Alpha"}, "31": {"stimulus": 29, "trial": 31, "rt": 3288, "response": "Alpha"}, "30": {"stimulus": 76, "trial": 30, "rt": 1018, "response": "Alpha"}, "37": {"stimulus": 39, "trial": 37, "rt": 986, "response": "Alpha"}, "36": {"stimulus": 79, "trial": 36, "rt": 958, "response": "Alpha"}, "35": {"stimulus": 14, "trial": 35, "rt": 1716, "response": "Alpha"}, "34": {"stimulus": 0, "trial": 34, "rt": 1532, "response": "Beta"}, "33": {"stimulus": 32, "trial": 33, "rt": 1062, "response": "Alpha"}, "55": {"stimulus": 78, "trial": 55, "rt": 1261, "response": "Alpha"}, "74": {"stimulus": 34, "trial": 74, "rt": 907, "response": "Alpha"}, "32": {"stimulus": 26, "trial": 32, "rt": 1309, "response": "Alpha"}, "57": {"stimulus": 11, "trial": 57, "rt": 1593, "response": "Beta"}, "50": {"stimulus": 16, "trial": 50, "rt": 1278, "response": "Alpha"}}}