{"generation": {"1": {"stimulus": 47, "trial": 1, "rt": 6622}, "0": {"stimulus": 80, "trial": 0, "rt": 14020}, "3": {"stimulus": 72, "trial": 3, "rt": 2500}, "2": {"stimulus": 78, "trial": 2, "rt": 8018}}, "info": {"finish": 1488823227237, "participant": 227, "exposed": true, "lab": false, "start": 1488823014270, "counterbalance": 6, "condition": "Row", "browser": {"platform": "Win32", "userAgent": "Mozilla/5.0 (Windows NT 10.0; Win64; x64) AppleWebKit/537.36 (KHTML, like Gecko) Chrome/56.0.2924.87 Safari/537.36"}}, "experiment": {"Paradigm": "TACL", "Stimuli": "Size-Color Squares", "Experiment": "Generating-Categories"}, "observation": {"11": {"stimulus": 10, "trial": 11, "rt": 768}, "10": {"stimulus": 14, "trial": 10, "rt": 811}, "1": {"stimulus": 14, "trial": 1, "rt": 1445}, "0": {"stimulus": 12, "trial": 0, "rt": 2971}, "3": {"stimulus": 16, "trial": 3, "rt": 1233}, "2": {"stimulus": 10, "trial": 2, "rt": 1152}, "5": {"stimulus": 16, "trial": 5, "rt": 1039}, "4": {"stimulus": 14, "trial": 4, "rt": 1117}, "7": {"stimulus": 10, "trial": 7, "rt": 1025}, "6": {"stimulus": 12, "trial": 6, "rt": 1150}, "9": {"stimulus": 12, "trial": 9, "rt": 1045}, "8": {"stimulus": 16, "trial": 8, "rt": 1064}}, "generalization": {"56": {"stimulus": 15, "trial": 56, "rt": 479, "response": "Alpha"}, "77": {"stimulus": 35, "trial": 77, "rt": 943, "response": "Alpha"}, "54": {"stimulus": 7, "trial": 54, "rt": 607, "response": "Alpha"}, "42": {"stimulus": 9, "trial": 42, "rt": 551, "response": "Alpha"}, "48": {"stimulus": 36, "trial": 48, "rt": 544, "response": "Beta"}, "43": {"stimulus": 56, "trial": 43, "rt": 621, "response": "Beta"}, "60": {"stimulus": 44, "trial": 60, "rt": 603, "response": "Beta"}, "61": {"stimulus": 51, "trial": 61, "rt": 539, "response": "Beta"}, "62": {"stimulus": 3, "trial": 62, "rt": 1118, "response": "Alpha"}, "63": {"stimulus": 20, "trial": 63, "rt": 726, "response": "Alpha"}, "64": {"stimulus": 43, "trial": 64, "rt": 538, "response": "Beta"}, "49": {"stimulus": 32, "trial": 49, "rt": 606, "response": "Beta"}, "66": {"stimulus": 76, "trial": 66, "rt": 454, "response": "Beta"}, "67": {"stimulus": 8, "trial": 67, "rt": 643, "response": "Alpha"}, "68": {"stimulus": 74, "trial": 68, "rt": 639, "response": "Beta"}, "69": {"stimulus": 42, "trial": 69, "rt": 920, "response": "Alpha"}, "80": {"stimulus": 60, "trial": 80, "rt": 536, "response": "Beta"}, "52": {"stimulus": 26, "trial": 52, "rt": 636, "response": "Alpha"}, "53": {"stimulus": 31, "trial": 53, "rt": 560, "response": "Beta"}, "24": {"stimulus": 38, "trial": 24, "rt": 744, "response": "Beta"}, "25": {"stimulus": 10, "trial": 25, "rt": 588, "response": "Alpha"}, "26": {"stimulus": 14, "trial": 26, "rt": 570, "response": "Alpha"}, "27": {"stimulus": 0, "trial": 27, "rt": 603, "response": "Alpha"}, "20": {"stimulus": 64, "trial": 20, "rt": 629, "response": "Beta"}, "21": {"stimulus": 16, "trial": 21, "rt": 588, "response": "Alpha"}, "22": {"stimulus": 34, "trial": 22, "rt": 1525, "response": "Beta"}, "23": {"stimulus": 78, "trial": 23, "rt": 652, "response": "Beta"}, "46": {"stimulus": 47, "trial": 46, "rt": 633, "response": "Beta"}, "47": {"stimulus": 62, "trial": 47, "rt": 521, "response": "Beta"}, "44": {"stimulus": 27, "trial": 44, "rt": 918, "response": "Beta"}, "45": {"stimulus": 65, "trial": 45, "rt": 577, "response": "Beta"}, "28": {"stimulus": 1, "trial": 28, "rt": 508, "response": "Alpha"}, "29": {"stimulus": 30, "trial": 29, "rt": 800, "response": "Beta"}, "40": {"stimulus": 45, "trial": 40, "rt": 753, "response": "Beta"}, "41": {"stimulus": 29, "trial": 41, "rt": 1045, "response": "Alpha"}, "1": {"stimulus": 24, "trial": 1, "rt": 852, "response": "Alpha"}, "0": {"stimulus": 70, "trial": 0, "rt": 1803, "response": "Beta"}, "3": {"stimulus": 49, "trial": 3, "rt": 1444, "response": "Alpha"}, "2": {"stimulus": 52, "trial": 2, "rt": 3730, "response": "Alpha"}, "5": {"stimulus": 23, "trial": 5, "rt": 879, "response": "Alpha"}, "4": {"stimulus": 58, "trial": 4, "rt": 1123, "response": "Alpha"}, "7": {"stimulus": 73, "trial": 7, "rt": 736, "response": "Beta"}, "6": {"stimulus": 50, "trial": 6, "rt": 800, "response": "Beta"}, "9": {"stimulus": 18, "trial": 9, "rt": 749, "response": "Alpha"}, "8": {"stimulus": 11, "trial": 8, "rt": 599, "response": "Alpha"}, "78": {"stimulus": 57, "trial": 78, "rt": 581, "response": "Beta"}, "51": {"stimulus": 63, "trial": 51, "rt": 549, "response": "Beta"}, "39": {"stimulus": 25, "trial": 39, "rt": 582, "response": "Alpha"}, "65": {"stimulus": 75, "trial": 65, "rt": 442, "response": "Beta"}, "76": {"stimulus": 39, "trial": 76, "rt": 908, "response": "Alpha"}, "75": {"stimulus": 28, "trial": 75, "rt": 1410, "response": "Beta"}, "38": {"stimulus": 67, "trial": 38, "rt": 714, "response": "Beta"}, "73": {"stimulus": 80, "trial": 73, "rt": 441, "response": "Beta"}, "72": {"stimulus": 68, "trial": 72, "rt": 565, "response": "Beta"}, "71": {"stimulus": 79, "trial": 71, "rt": 469, "response": "Beta"}, "70": {"stimulus": 61, "trial": 70, "rt": 509, "response": "Beta"}, "59": {"stimulus": 37, "trial": 59, "rt": 583, "response": "Beta"}, "79": {"stimulus": 40, "trial": 79, "rt": 652, "response": "Beta"}, "58": {"stimulus": 41, "trial": 58, "rt": 673, "response": "Beta"}, "11": {"stimulus": 55, "trial": 11, "rt": 627, "response": "Beta"}, "10": {"stimulus": 6, "trial": 10, "rt": 559, "response": "Alpha"}, "13": {"stimulus": 69, "trial": 13, "rt": 528, "response": "Beta"}, "12": {"stimulus": 71, "trial": 12, "rt": 595, "response": "Beta"}, "15": {"stimulus": 48, "trial": 15, "rt": 739, "response": "Beta"}, "14": {"stimulus": 53, "trial": 14, "rt": 614, "response": "Beta"}, "17": {"stimulus": 72, "trial": 17, "rt": 648, "response": "Beta"}, "16": {"stimulus": 17, "trial": 16, "rt": 539, "response": "Alpha"}, "19": {"stimulus": 12, "trial": 19, "rt": 510, "response": "Alpha"}, "18": {"stimulus": 2, "trial": 18, "rt": 958, "response": "Alpha"}, "31": {"stimulus": 46, "trial": 31, "rt": 644, "response": "Beta"}, "30": {"stimulus": 54, "trial": 30, "rt": 674, "response": "Beta"}, "37": {"stimulus": 33, "trial": 37, "rt": 901, "response": "Beta"}, "36": {"stimulus": 77, "trial": 36, "rt": 507, "response": "Beta"}, "35": {"stimulus": 66, "trial": 35, "rt": 627, "response": "Beta"}, "34": {"stimulus": 19, "trial": 34, "rt": 544, "response": "Alpha"}, "33": {"stimulus": 21, "trial": 33, "rt": 814, "response": "Alpha"}, "55": {"stimulus": 5, "trial": 55, "rt": 650, "response": "Alpha"}, "74": {"stimulus": 13, "trial": 74, "rt": 1747, "response": "Alpha"}, "32": {"stimulus": 4, "trial": 32, "rt": 559, "response": "Alpha"}, "57": {"stimulus": 59, "trial": 57, "rt": 952, "response": "Beta"}, "50": {"stimulus": 22, "trial": 50, "rt": 618, "response": "Alpha"}}}