{"generation": {"1": {"stimulus": 80, "trial": 1, "rt": 7126}, "0": {"stimulus": 8, "trial": 0, "rt": 25819}, "3": {"stimulus": 62, "trial": 3, "rt": 7193}, "2": {"stimulus": 71, "trial": 2, "rt": 7929}}, "info": {"finish": 1488822144040, "participant": 23, "exposed": true, "lab": false, "start": 1488821832479, "counterbalance": 0, "condition": "XOR", "browser": {"platform": "MacIntel", "userAgent": "Mozilla/5.0 (Macintosh; Intel Mac OS X 10_10_1) AppleWebKit/537.36 (KHTML, like Gecko) Chrome/56.0.2924.87 Safari/537.36"}}, "experiment": {"Paradigm": "TACL", "Stimuli": "Size-Color Squares", "Experiment": "Generating-Categories"}, "observation": {"11": {"stimulus": 0, "trial": 11, "rt": 1938}, "10": {"stimulus": 10, "trial": 10, "rt": 1736}, "1": {"stimulus": 70, "trial": 1, "rt": 2570}, "0": {"stimulus": 80, "trial": 0, "rt": 3906}, "3": {"stimulus": 10, "trial": 3, "rt": 1542}, "2": {"stimulus": 0, "trial": 2, "rt": 1946}, "5": {"stimulus": 10, "trial": 5, "rt": 1435}, "4": {"stimulus": 80, "trial": 4, "rt": 2097}, "7": {"stimulus": 70, "trial": 7, "rt": 2157}, "6": {"stimulus": 0, "trial": 6, "rt": 1550}, "9": {"stimulus": 80, "trial": 9, "rt": 1563}, "8": {"stimulus": 70, "trial": 8, "rt": 1100}}, "generalization": {"56": {"stimulus": 6, "trial": 56, "rt": 1238, "response": "Alpha"}, "77": {"stimulus": 40, "trial": 77, "rt": 500, "response": "Alpha"}, "54": {"stimulus": 27, "trial": 54, "rt": 528, "response": "Alpha"}, "42": {"stimulus": 14, "trial": 42, "rt": 786, "response": "Alpha"}, "48": {"stimulus": 69, "trial": 48, "rt": 1098, "response": "Alpha"}, "43": {"stimulus": 56, "trial": 43, "rt": 544, "response": "Alpha"}, "60": {"stimulus": 21, "trial": 60, "rt": 520, "response": "Alpha"}, "61": {"stimulus": 75, "trial": 61, "rt": 565, "response": "Alpha"}, "62": {"stimulus": 37, "trial": 62, "rt": 536, "response": "Alpha"}, "63": {"stimulus": 3, "trial": 63, "rt": 631, "response": "Alpha"}, "64": {"stimulus": 26, "trial": 64, "rt": 1611, "response": "Beta"}, "49": {"stimulus": 22, "trial": 49, "rt": 536, "response": "Alpha"}, "66": {"stimulus": 61, "trial": 66, "rt": 1038, "response": "Alpha"}, "67": {"stimulus": 64, "trial": 67, "rt": 505, "response": "Alpha"}, "68": {"stimulus": 67, "trial": 68, "rt": 576, "response": "Alpha"}, "69": {"stimulus": 12, "trial": 69, "rt": 486, "response": "Alpha"}, "80": {"stimulus": 16, "trial": 80, "rt": 979, "response": "Alpha"}, "52": {"stimulus": 71, "trial": 52, "rt": 1294, "response": "Beta"}, "53": {"stimulus": 20, "trial": 53, "rt": 14947, "response": "Alpha"}, "24": {"stimulus": 43, "trial": 24, "rt": 2733, "response": "Beta"}, "25": {"stimulus": 13, "trial": 25, "rt": 1371, "response": "Alpha"}, "26": {"stimulus": 15, "trial": 26, "rt": 1067, "response": "Alpha"}, "27": {"stimulus": 46, "trial": 27, "rt": 610, "response": "Alpha"}, "20": {"stimulus": 48, "trial": 20, "rt": 844, "response": "Alpha"}, "21": {"stimulus": 62, "trial": 21, "rt": 1508, "response": "Beta"}, "22": {"stimulus": 39, "trial": 22, "rt": 956, "response": "Alpha"}, "23": {"stimulus": 24, "trial": 23, "rt": 3254, "response": "Alpha"}, "46": {"stimulus": 28, "trial": 46, "rt": 514, "response": "Alpha"}, "47": {"stimulus": 51, "trial": 47, "rt": 1103, "response": "Alpha"}, "44": {"stimulus": 76, "trial": 44, "rt": 578, "response": "Alpha"}, "45": {"stimulus": 73, "trial": 45, "rt": 522, "response": "Alpha"}, "28": {"stimulus": 55, "trial": 28, "rt": 604, "response": "Alpha"}, "29": {"stimulus": 49, "trial": 29, "rt": 658, "response": "Alpha"}, "40": {"stimulus": 74, "trial": 40, "rt": 1166, "response": "Alpha"}, "41": {"stimulus": 9, "trial": 41, "rt": 722, "response": "Alpha"}, "1": {"stimulus": 78, "trial": 1, "rt": 3643, "response": "Alpha"}, "0": {"stimulus": 63, "trial": 0, "rt": 1775, "response": "Alpha"}, "3": {"stimulus": 44, "trial": 3, "rt": 3055, "response": "Beta"}, "2": {"stimulus": 53, "trial": 2, "rt": 2378, "response": "Beta"}, "5": {"stimulus": 33, "trial": 5, "rt": 1015, "response": "Beta"}, "4": {"stimulus": 34, "trial": 4, "rt": 3931, "response": "Beta"}, "7": {"stimulus": 65, "trial": 7, "rt": 1101, "response": "Alpha"}, "6": {"stimulus": 77, "trial": 6, "rt": 1132, "response": "Beta"}, "9": {"stimulus": 31, "trial": 9, "rt": 1693, "response": "Alpha"}, "8": {"stimulus": 72, "trial": 8, "rt": 614, "response": "Alpha"}, "78": {"stimulus": 41, "trial": 78, "rt": 452, "response": "Alpha"}, "51": {"stimulus": 50, "trial": 51, "rt": 906, "response": "Alpha"}, "39": {"stimulus": 8, "trial": 39, "rt": 2737, "response": "Beta"}, "65": {"stimulus": 54, "trial": 65, "rt": 1017, "response": "Alpha"}, "76": {"stimulus": 70, "trial": 76, "rt": 2712, "response": "Alpha"}, "75": {"stimulus": 17, "trial": 75, "rt": 1635, "response": "Beta"}, "38": {"stimulus": 60, "trial": 38, "rt": 650, "response": "Alpha"}, "73": {"stimulus": 4, "trial": 73, "rt": 634, "response": "Alpha"}, "72": {"stimulus": 47, "trial": 72, "rt": 464, "response": "Alpha"}, "71": {"stimulus": 11, "trial": 71, "rt": 495, "response": "Alpha"}, "70": {"stimulus": 32, "trial": 70, "rt": 666, "response": "Alpha"}, "59": {"stimulus": 18, "trial": 59, "rt": 543, "response": "Alpha"}, "79": {"stimulus": 23, "trial": 79, "rt": 482, "response": "Alpha"}, "58": {"stimulus": 25, "trial": 58, "rt": 1126, "response": "Alpha"}, "11": {"stimulus": 66, "trial": 11, "rt": 883, "response": "Alpha"}, "10": {"stimulus": 1, "trial": 10, "rt": 741, "response": "Alpha"}, "13": {"stimulus": 29, "trial": 13, "rt": 1648, "response": "Alpha"}, "12": {"stimulus": 68, "trial": 12, "rt": 1639, "response": "Beta"}, "15": {"stimulus": 30, "trial": 15, "rt": 910, "response": "Alpha"}, "14": {"stimulus": 59, "trial": 14, "rt": 3950, "response": "Alpha"}, "17": {"stimulus": 5, "trial": 17, "rt": 2578, "response": "Beta"}, "16": {"stimulus": 58, "trial": 16, "rt": 1932, "response": "Alpha"}, "19": {"stimulus": 0, "trial": 19, "rt": 1196, "response": "Alpha"}, "18": {"stimulus": 80, "trial": 18, "rt": 1692, "response": "Beta"}, "31": {"stimulus": 45, "trial": 31, "rt": 931, "response": "Alpha"}, "30": {"stimulus": 79, "trial": 30, "rt": 2314, "response": "Beta"}, "37": {"stimulus": 7, "trial": 37, "rt": 741, "response": "Alpha"}, "36": {"stimulus": 52, "trial": 36, "rt": 1990, "response": "Alpha"}, "35": {"stimulus": 2, "trial": 35, "rt": 1988, "response": "Alpha"}, "34": {"stimulus": 19, "trial": 34, "rt": 2095, "response": "Alpha"}, "33": {"stimulus": 38, "trial": 33, "rt": 705, "response": "Alpha"}, "55": {"stimulus": 35, "trial": 55, "rt": 1190, "response": "Beta"}, "74": {"stimulus": 42, "trial": 74, "rt": 484, "response": "Alpha"}, "32": {"stimulus": 57, "trial": 32, "rt": 666, "response": "Alpha"}, "57": {"stimulus": 36, "trial": 57, "rt": 2546, "response": "Alpha"}, "50": {"stimulus": 10, "trial": 50, "rt": 496, "response": "Alpha"}}}