{"generation": {"1": {"stimulus": 75, "trial": 1, "rt": 7951}, "0": {"stimulus": 66, "trial": 0, "rt": 11398}, "3": {"stimulus": 68, "trial": 3, "rt": 6163}, "2": {"stimulus": 64, "trial": 2, "rt": 8139}}, "info": {"finish": 1488823360625, "participant": 231, "exposed": true, "lab": false, "start": 1488823123727, "counterbalance": 3, "condition": "Cluster", "browser": {"platform": "Win32", "userAgent": "Mozilla/5.0 (Windows NT 10.0; WOW64; rv:51.0) Gecko/20100101 Firefox/51.0"}}, "experiment": {"Paradigm": "TACL", "Stimuli": "Size-Color Squares", "Experiment": "Generating-Categories"}, "observation": {"11": {"stimulus": 14, "trial": 11, "rt": 1409}, "10": {"stimulus": 16, "trial": 10, "rt": 1185}, "1": {"stimulus": 16, "trial": 1, "rt": 4697}, "0": {"stimulus": 34, "trial": 0, "rt": 2403}, "3": {"stimulus": 14, "trial": 3, "rt": 2256}, "2": {"stimulus": 32, "trial": 2, "rt": 1834}, "5": {"stimulus": 34, "trial": 5, "rt": 1789}, "4": {"stimulus": 14, "trial": 4, "rt": 1935}, "7": {"stimulus": 32, "trial": 7, "rt": 1435}, "6": {"stimulus": 16, "trial": 6, "rt": 1557}, "9": {"stimulus": 32, "trial": 9, "rt": 1103}, "8": {"stimulus": 34, "trial": 8, "rt": 1290}}, "generalization": {"56": {"stimulus": 25, "trial": 56, "rt": 1418, "response": "Alpha"}, "77": {"stimulus": 68, "trial": 77, "rt": 591, "response": "Beta"}, "54": {"stimulus": 42, "trial": 54, "rt": 651, "response": "Beta"}, "42": {"stimulus": 0, "trial": 42, "rt": 556, "response": "Alpha"}, "48": {"stimulus": 45, "trial": 48, "rt": 623, "response": "Beta"}, "43": {"stimulus": 27, "trial": 43, "rt": 721, "response": "Alpha"}, "60": {"stimulus": 39, "trial": 60, "rt": 1181, "response": "Alpha"}, "61": {"stimulus": 9, "trial": 61, "rt": 1017, "response": "Alpha"}, "62": {"stimulus": 4, "trial": 62, "rt": 517, "response": "Alpha"}, "63": {"stimulus": 56, "trial": 63, "rt": 1201, "response": "Beta"}, "64": {"stimulus": 21, "trial": 64, "rt": 2515, "response": "Alpha"}, "49": {"stimulus": 52, "trial": 49, "rt": 606, "response": "Beta"}, "66": {"stimulus": 3, "trial": 66, "rt": 700, "response": "Alpha"}, "67": {"stimulus": 75, "trial": 67, "rt": 1205, "response": "Beta"}, "68": {"stimulus": 31, "trial": 68, "rt": 2080, "response": "Alpha"}, "69": {"stimulus": 48, "trial": 69, "rt": 596, "response": "Alpha"}, "80": {"stimulus": 74, "trial": 80, "rt": 469, "response": "Beta"}, "52": {"stimulus": 40, "trial": 52, "rt": 572, "response": "Alpha"}, "53": {"stimulus": 57, "trial": 53, "rt": 1298, "response": "Beta"}, "24": {"stimulus": 61, "trial": 24, "rt": 519, "response": "Beta"}, "25": {"stimulus": 1, "trial": 25, "rt": 1205, "response": "Alpha"}, "26": {"stimulus": 2, "trial": 26, "rt": 592, "response": "Alpha"}, "27": {"stimulus": 26, "trial": 27, "rt": 984, "response": "Alpha"}, "20": {"stimulus": 54, "trial": 20, "rt": 1145, "response": "Beta"}, "21": {"stimulus": 15, "trial": 21, "rt": 1074, "response": "Alpha"}, "22": {"stimulus": 65, "trial": 22, "rt": 1053, "response": "Beta"}, "23": {"stimulus": 64, "trial": 23, "rt": 565, "response": "Beta"}, "46": {"stimulus": 70, "trial": 46, "rt": 1515, "response": "Beta"}, "47": {"stimulus": 50, "trial": 47, "rt": 788, "response": "Beta"}, "44": {"stimulus": 5, "trial": 44, "rt": 545, "response": "Alpha"}, "45": {"stimulus": 41, "trial": 45, "rt": 1295, "response": "Alpha"}, "28": {"stimulus": 59, "trial": 28, "rt": 1313, "response": "Beta"}, "29": {"stimulus": 33, "trial": 29, "rt": 1141, "response": "Alpha"}, "40": {"stimulus": 71, "trial": 40, "rt": 1283, "response": "Beta"}, "41": {"stimulus": 8, "trial": 41, "rt": 1091, "response": "Alpha"}, "1": {"stimulus": 62, "trial": 1, "rt": 1404, "response": "Beta"}, "0": {"stimulus": 35, "trial": 0, "rt": 1818, "response": "Alpha"}, "3": {"stimulus": 69, "trial": 3, "rt": 966, "response": "Beta"}, "2": {"stimulus": 16, "trial": 2, "rt": 1375, "response": "Alpha"}, "5": {"stimulus": 58, "trial": 5, "rt": 683, "response": "Beta"}, "4": {"stimulus": 73, "trial": 4, "rt": 752, "response": "Beta"}, "7": {"stimulus": 38, "trial": 7, "rt": 726, "response": "Alpha"}, "6": {"stimulus": 22, "trial": 6, "rt": 2530, "response": "Alpha"}, "9": {"stimulus": 13, "trial": 9, "rt": 2117, "response": "Alpha"}, "8": {"stimulus": 17, "trial": 8, "rt": 717, "response": "Alpha"}, "78": {"stimulus": 49, "trial": 78, "rt": 506, "response": "Beta"}, "51": {"stimulus": 29, "trial": 51, "rt": 617, "response": "Alpha"}, "39": {"stimulus": 7, "trial": 39, "rt": 931, "response": "Alpha"}, "65": {"stimulus": 12, "trial": 65, "rt": 699, "response": "Alpha"}, "76": {"stimulus": 78, "trial": 76, "rt": 1399, "response": "Beta"}, "75": {"stimulus": 55, "trial": 75, "rt": 1299, "response": "Beta"}, "38": {"stimulus": 47, "trial": 38, "rt": 724, "response": "Alpha"}, "73": {"stimulus": 6, "trial": 73, "rt": 2992, "response": "Alpha"}, "72": {"stimulus": 30, "trial": 72, "rt": 574, "response": "Alpha"}, "71": {"stimulus": 11, "trial": 71, "rt": 2786, "response": "Alpha"}, "70": {"stimulus": 19, "trial": 70, "rt": 3896, "response": "Alpha"}, "59": {"stimulus": 79, "trial": 59, "rt": 951, "response": "Beta"}, "79": {"stimulus": 77, "trial": 79, "rt": 677, "response": "Beta"}, "58": {"stimulus": 23, "trial": 58, "rt": 1390, "response": "Alpha"}, "11": {"stimulus": 46, "trial": 11, "rt": 1481, "response": "Beta"}, "10": {"stimulus": 14, "trial": 10, "rt": 1124, "response": "Alpha"}, "13": {"stimulus": 36, "trial": 13, "rt": 591, "response": "Alpha"}, "12": {"stimulus": 44, "trial": 12, "rt": 2212, "response": "Alpha"}, "15": {"stimulus": 76, "trial": 15, "rt": 631, "response": "Beta"}, "14": {"stimulus": 80, "trial": 14, "rt": 1298, "response": "Beta"}, "17": {"stimulus": 67, "trial": 17, "rt": 1028, "response": "Beta"}, "16": {"stimulus": 37, "trial": 16, "rt": 1320, "response": "Alpha"}, "19": {"stimulus": 53, "trial": 19, "rt": 1122, "response": "Alpha"}, "18": {"stimulus": 66, "trial": 18, "rt": 654, "response": "Beta"}, "31": {"stimulus": 43, "trial": 31, "rt": 644, "response": "Alpha"}, "30": {"stimulus": 32, "trial": 30, "rt": 578, "response": "Alpha"}, "37": {"stimulus": 51, "trial": 37, "rt": 806, "response": "Alpha"}, "36": {"stimulus": 28, "trial": 36, "rt": 594, "response": "Alpha"}, "35": {"stimulus": 18, "trial": 35, "rt": 3308, "response": "Alpha"}, "34": {"stimulus": 20, "trial": 34, "rt": 1205, "response": "Alpha"}, "33": {"stimulus": 72, "trial": 33, "rt": 1113, "response": "Beta"}, "55": {"stimulus": 63, "trial": 55, "rt": 718, "response": "Beta"}, "74": {"stimulus": 24, "trial": 74, "rt": 838, "response": "Alpha"}, "32": {"stimulus": 34, "trial": 32, "rt": 628, "response": "Alpha"}, "57": {"stimulus": 60, "trial": 57, "rt": 1196, "response": "Beta"}, "50": {"stimulus": 10, "trial": 50, "rt": 1124, "response": "Alpha"}}}