{"generation": {"1": {"stimulus": 40, "trial": 1, "rt": 3403}, "0": {"stimulus": 50, "trial": 0, "rt": 5527}, "3": {"stimulus": 49, "trial": 3, "rt": 2610}, "2": {"stimulus": 58, "trial": 2, "rt": 3501}}, "info": {"finish": 1488823251850, "participant": 233, "exposed": true, "lab": false, "start": 1488823040708, "counterbalance": 0, "condition": "Row", "browser": {"platform": "Win32", "userAgent": "Mozilla/5.0 (Windows NT 6.1; WOW64; rv:51.0) Gecko/20100101 Firefox/51.0"}}, "experiment": {"Paradigm": "TACL", "Stimuli": "Size-Color Squares", "Experiment": "Generating-Categories"}, "observation": {"11": {"stimulus": 10, "trial": 11, "rt": 769}, "10": {"stimulus": 16, "trial": 10, "rt": 859}, "1": {"stimulus": 10, "trial": 1, "rt": 2376}, "0": {"stimulus": 14, "trial": 0, "rt": 45925}, "3": {"stimulus": 12, "trial": 3, "rt": 1044}, "2": {"stimulus": 16, "trial": 2, "rt": 1191}, "5": {"stimulus": 10, "trial": 5, "rt": 1313}, "4": {"stimulus": 16, "trial": 4, "rt": 3471}, "7": {"stimulus": 12, "trial": 7, "rt": 955}, "6": {"stimulus": 14, "trial": 6, "rt": 1031}, "9": {"stimulus": 14, "trial": 9, "rt": 669}, "8": {"stimulus": 12, "trial": 8, "rt": 943}}, "generalization": {"56": {"stimulus": 11, "trial": 56, "rt": 180, "response": "Beta"}, "77": {"stimulus": 2, "trial": 77, "rt": 263, "response": "Alpha"}, "54": {"stimulus": 3, "trial": 54, "rt": 251, "response": "Alpha"}, "42": {"stimulus": 78, "trial": 42, "rt": 406, "response": "Alpha"}, "48": {"stimulus": 41, "trial": 48, "rt": 252, "response": "Beta"}, "43": {"stimulus": 14, "trial": 43, "rt": 432, "response": "Alpha"}, "60": {"stimulus": 25, "trial": 60, "rt": 324, "response": "Alpha"}, "61": {"stimulus": 4, "trial": 61, "rt": 334, "response": "Alpha"}, "62": {"stimulus": 13, "trial": 62, "rt": 142, "response": "Beta"}, "63": {"stimulus": 77, "trial": 63, "rt": 260, "response": "Alpha"}, "64": {"stimulus": 48, "trial": 64, "rt": 591, "response": "Beta"}, "49": {"stimulus": 7, "trial": 49, "rt": 252, "response": "Alpha"}, "66": {"stimulus": 61, "trial": 66, "rt": 212, "response": "Beta"}, "67": {"stimulus": 45, "trial": 67, "rt": 244, "response": "Alpha"}, "68": {"stimulus": 23, "trial": 68, "rt": 270, "response": "Alpha"}, "69": {"stimulus": 34, "trial": 69, "rt": 328, "response": "Beta"}, "80": {"stimulus": 29, "trial": 80, "rt": 150, "response": "Alpha"}, "52": {"stimulus": 74, "trial": 52, "rt": 561, "response": "Alpha"}, "53": {"stimulus": 80, "trial": 53, "rt": 283, "response": "Alpha"}, "24": {"stimulus": 71, "trial": 24, "rt": 253, "response": "Alpha"}, "25": {"stimulus": 17, "trial": 25, "rt": 247, "response": "Beta"}, "26": {"stimulus": 59, "trial": 26, "rt": 305, "response": "Alpha"}, "27": {"stimulus": 9, "trial": 27, "rt": 203, "response": "Beta"}, "20": {"stimulus": 42, "trial": 20, "rt": 298, "response": "Alpha"}, "21": {"stimulus": 18, "trial": 21, "rt": 274, "response": "Alpha"}, "22": {"stimulus": 51, "trial": 22, "rt": 359, "response": "Alpha"}, "23": {"stimulus": 1, "trial": 23, "rt": 194, "response": "Beta"}, "46": {"stimulus": 50, "trial": 46, "rt": 174, "response": "Alpha"}, "47": {"stimulus": 55, "trial": 47, "rt": 542, "response": "Beta"}, "44": {"stimulus": 19, "trial": 44, "rt": 300, "response": "Alpha"}, "45": {"stimulus": 57, "trial": 45, "rt": 154, "response": "Alpha"}, "28": {"stimulus": 49, "trial": 28, "rt": 226, "response": "Beta"}, "29": {"stimulus": 40, "trial": 29, "rt": 409, "response": "Beta"}, "40": {"stimulus": 24, "trial": 40, "rt": 448, "response": "Beta"}, "41": {"stimulus": 30, "trial": 41, "rt": 554, "response": "Alpha"}, "1": {"stimulus": 33, "trial": 1, "rt": 488, "response": "Alpha"}, "0": {"stimulus": 68, "trial": 0, "rt": 1496, "response": "Alpha"}, "3": {"stimulus": 58, "trial": 3, "rt": 431, "response": "Alpha"}, "2": {"stimulus": 75, "trial": 2, "rt": 474, "response": "Beta"}, "5": {"stimulus": 6, "trial": 5, "rt": 258, "response": "Beta"}, "4": {"stimulus": 38, "trial": 4, "rt": 371, "response": "Alpha"}, "7": {"stimulus": 15, "trial": 7, "rt": 249, "response": "Alpha"}, "6": {"stimulus": 26, "trial": 6, "rt": 274, "response": "Beta"}, "9": {"stimulus": 8, "trial": 9, "rt": 200, "response": "Beta"}, "8": {"stimulus": 37, "trial": 8, "rt": 304, "response": "Alpha"}, "78": {"stimulus": 79, "trial": 78, "rt": 297, "response": "Beta"}, "51": {"stimulus": 20, "trial": 51, "rt": 230, "response": "Alpha"}, "39": {"stimulus": 0, "trial": 39, "rt": 656, "response": "Alpha"}, "65": {"stimulus": 70, "trial": 65, "rt": 312, "response": "Beta"}, "76": {"stimulus": 22, "trial": 76, "rt": 186, "response": "Alpha"}, "75": {"stimulus": 53, "trial": 75, "rt": 420, "response": "Alpha"}, "38": {"stimulus": 21, "trial": 38, "rt": 966, "response": "Alpha"}, "73": {"stimulus": 12, "trial": 73, "rt": 234, "response": "Alpha"}, "72": {"stimulus": 32, "trial": 72, "rt": 217, "response": "Alpha"}, "71": {"stimulus": 69, "trial": 71, "rt": 268, "response": "Alpha"}, "70": {"stimulus": 62, "trial": 70, "rt": 336, "response": "Alpha"}, "59": {"stimulus": 31, "trial": 59, "rt": 202, "response": "Alpha"}, "79": {"stimulus": 56, "trial": 79, "rt": 333, "response": "Beta"}, "58": {"stimulus": 63, "trial": 58, "rt": 450, "response": "Beta"}, "11": {"stimulus": 52, "trial": 11, "rt": 384, "response": "Alpha"}, "10": {"stimulus": 60, "trial": 10, "rt": 235, "response": "Alpha"}, "13": {"stimulus": 35, "trial": 13, "rt": 410, "response": "Beta"}, "12": {"stimulus": 76, "trial": 12, "rt": 308, "response": "Beta"}, "15": {"stimulus": 43, "trial": 15, "rt": 320, "response": "Alpha"}, "14": {"stimulus": 72, "trial": 14, "rt": 306, "response": "Beta"}, "17": {"stimulus": 28, "trial": 17, "rt": 411, "response": "Beta"}, "16": {"stimulus": 47, "trial": 16, "rt": 378, "response": "Alpha"}, "19": {"stimulus": 16, "trial": 19, "rt": 338, "response": "Alpha"}, "18": {"stimulus": 27, "trial": 18, "rt": 370, "response": "Beta"}, "31": {"stimulus": 46, "trial": 31, "rt": 490, "response": "Alpha"}, "30": {"stimulus": 66, "trial": 30, "rt": 418, "response": "Alpha"}, "37": {"stimulus": 65, "trial": 37, "rt": 571, "response": "Alpha"}, "36": {"stimulus": 5, "trial": 36, "rt": 1092, "response": "Beta"}, "35": {"stimulus": 54, "trial": 35, "rt": 461, "response": "Beta"}, "34": {"stimulus": 67, "trial": 34, "rt": 474, "response": "Beta"}, "33": {"stimulus": 73, "trial": 33, "rt": 737, "response": "Beta"}, "55": {"stimulus": 36, "trial": 55, "rt": 221, "response": "Beta"}, "74": {"stimulus": 44, "trial": 74, "rt": 542, "response": "Alpha"}, "32": {"stimulus": 64, "trial": 32, "rt": 490, "response": "Beta"}, "57": {"stimulus": 39, "trial": 57, "rt": 1937, "response": "Beta"}, "50": {"stimulus": 10, "trial": 50, "rt": 243, "response": "Beta"}}}