{"generation": {"1": {"stimulus": 80, "trial": 1, "rt": 6871}, "0": {"stimulus": 72, "trial": 0, "rt": 15358}, "3": {"stimulus": 76, "trial": 3, "rt": 2297}, "2": {"stimulus": 77, "trial": 2, "rt": 7643}}, "info": {"finish": 1488823534455, "participant": 234, "exposed": true, "lab": false, "start": 1488823092192, "counterbalance": 2, "condition": "Cluster", "browser": {"platform": "Win32", "userAgent": "Mozilla/5.0 (Windows NT 10.0; WOW64) AppleWebKit/537.36 (KHTML, like Gecko) Chrome/56.0.2924.87 Safari/537.36"}}, "experiment": {"Paradigm": "TACL", "Stimuli": "Size-Color Squares", "Experiment": "Generating-Categories"}, "observation": {"11": {"stimulus": 16, "trial": 11, "rt": 663}, "10": {"stimulus": 14, "trial": 10, "rt": 564}, "1": {"stimulus": 16, "trial": 1, "rt": 1165}, "0": {"stimulus": 14, "trial": 0, "rt": 1339}, "3": {"stimulus": 32, "trial": 3, "rt": 1014}, "2": {"stimulus": 34, "trial": 2, "rt": 1707}, "5": {"stimulus": 16, "trial": 5, "rt": 974}, "4": {"stimulus": 14, "trial": 4, "rt": 914}, "7": {"stimulus": 34, "trial": 7, "rt": 834}, "6": {"stimulus": 32, "trial": 6, "rt": 864}, "9": {"stimulus": 34, "trial": 9, "rt": 844}, "8": {"stimulus": 32, "trial": 8, "rt": 862}}, "generalization": {"56": {"stimulus": 68, "trial": 56, "rt": 692, "response": "Beta"}, "77": {"stimulus": 19, "trial": 77, "rt": 724, "response": "Alpha"}, "54": {"stimulus": 42, "trial": 54, "rt": 783, "response": "Alpha"}, "42": {"stimulus": 39, "trial": 42, "rt": 892, "response": "Alpha"}, "48": {"stimulus": 31, "trial": 48, "rt": 733, "response": "Alpha"}, "43": {"stimulus": 3, "trial": 43, "rt": 461, "response": "Alpha"}, "60": {"stimulus": 57, "trial": 60, "rt": 682, "response": "Alpha"}, "61": {"stimulus": 6, "trial": 61, "rt": 685, "response": "Alpha"}, "62": {"stimulus": 79, "trial": 62, "rt": 11305, "response": "Beta"}, "63": {"stimulus": 15, "trial": 63, "rt": 672, "response": "Alpha"}, "64": {"stimulus": 70, "trial": 64, "rt": 635, "response": "Beta"}, "49": {"stimulus": 72, "trial": 49, "rt": 15015, "response": "Beta"}, "66": {"stimulus": 5, "trial": 66, "rt": 503, "response": "Alpha"}, "67": {"stimulus": 41, "trial": 67, "rt": 5830, "response": "Alpha"}, "68": {"stimulus": 45, "trial": 68, "rt": 642, "response": "Alpha"}, "69": {"stimulus": 60, "trial": 69, "rt": 1626, "response": "Alpha"}, "80": {"stimulus": 49, "trial": 80, "rt": 612, "response": "Alpha"}, "52": {"stimulus": 43, "trial": 52, "rt": 553, "response": "Alpha"}, "53": {"stimulus": 74, "trial": 53, "rt": 733, "response": "Beta"}, "24": {"stimulus": 38, "trial": 24, "rt": 1064, "response": "Alpha"}, "25": {"stimulus": 33, "trial": 25, "rt": 491, "response": "Alpha"}, "26": {"stimulus": 28, "trial": 26, "rt": 492, "response": "Alpha"}, "27": {"stimulus": 29, "trial": 27, "rt": 583, "response": "Alpha"}, "20": {"stimulus": 77, "trial": 20, "rt": 662, "response": "Beta"}, "21": {"stimulus": 67, "trial": 21, "rt": 994, "response": "Beta"}, "22": {"stimulus": 58, "trial": 22, "rt": 542, "response": "Beta"}, "23": {"stimulus": 62, "trial": 23, "rt": 673, "response": "Beta"}, "46": {"stimulus": 23, "trial": 46, "rt": 752, "response": "Alpha"}, "47": {"stimulus": 64, "trial": 47, "rt": 1144, "response": "Beta"}, "44": {"stimulus": 55, "trial": 44, "rt": 634, "response": "Beta"}, "45": {"stimulus": 50, "trial": 45, "rt": 973, "response": "Beta"}, "28": {"stimulus": 36, "trial": 28, "rt": 512, "response": "Alpha"}, "29": {"stimulus": 24, "trial": 29, "rt": 492, "response": "Alpha"}, "40": {"stimulus": 34, "trial": 40, "rt": 503, "response": "Alpha"}, "41": {"stimulus": 11, "trial": 41, "rt": 482, "response": "Alpha"}, "1": {"stimulus": 18, "trial": 1, "rt": 1825, "response": "Alpha"}, "0": {"stimulus": 53, "trial": 0, "rt": 4264, "response": "Alpha"}, "3": {"stimulus": 40, "trial": 3, "rt": 702, "response": "Alpha"}, "2": {"stimulus": 73, "trial": 2, "rt": 1066, "response": "Beta"}, "5": {"stimulus": 63, "trial": 5, "rt": 1516, "response": "Alpha"}, "4": {"stimulus": 1, "trial": 4, "rt": 1357, "response": "Alpha"}, "7": {"stimulus": 20, "trial": 7, "rt": 1063, "response": "Alpha"}, "6": {"stimulus": 12, "trial": 6, "rt": 1134, "response": "Alpha"}, "9": {"stimulus": 61, "trial": 9, "rt": 1203, "response": "Beta"}, "8": {"stimulus": 14, "trial": 8, "rt": 854, "response": "Alpha"}, "78": {"stimulus": 7, "trial": 78, "rt": 410, "response": "Alpha"}, "51": {"stimulus": 52, "trial": 51, "rt": 504, "response": "Alpha"}, "39": {"stimulus": 30, "trial": 39, "rt": 563, "response": "Alpha"}, "65": {"stimulus": 0, "trial": 65, "rt": 571, "response": "Alpha"}, "76": {"stimulus": 78, "trial": 76, "rt": 934, "response": "Beta"}, "75": {"stimulus": 56, "trial": 75, "rt": 551, "response": "Alpha"}, "38": {"stimulus": 26, "trial": 38, "rt": 452, "response": "Alpha"}, "73": {"stimulus": 8, "trial": 73, "rt": 583, "response": "Alpha"}, "72": {"stimulus": 75, "trial": 72, "rt": 733, "response": "Beta"}, "71": {"stimulus": 37, "trial": 71, "rt": 562, "response": "Alpha"}, "70": {"stimulus": 69, "trial": 70, "rt": 492, "response": "Alpha"}, "59": {"stimulus": 17, "trial": 59, "rt": 643, "response": "Alpha"}, "79": {"stimulus": 2, "trial": 79, "rt": 362, "response": "Alpha"}, "58": {"stimulus": 46, "trial": 58, "rt": 502, "response": "Beta"}, "11": {"stimulus": 32, "trial": 11, "rt": 562, "response": "Alpha"}, "10": {"stimulus": 9, "trial": 10, "rt": 694, "response": "Alpha"}, "13": {"stimulus": 59, "trial": 13, "rt": 1093, "response": "Beta"}, "12": {"stimulus": 27, "trial": 12, "rt": 644, "response": "Alpha"}, "15": {"stimulus": 51, "trial": 15, "rt": 682, "response": "Alpha"}, "14": {"stimulus": 25, "trial": 14, "rt": 863, "response": "Alpha"}, "17": {"stimulus": 71, "trial": 17, "rt": 842, "response": "Beta"}, "16": {"stimulus": 80, "trial": 16, "rt": 793, "response": "Beta"}, "19": {"stimulus": 21, "trial": 19, "rt": 824, "response": "Alpha"}, "18": {"stimulus": 65, "trial": 18, "rt": 643, "response": "Beta"}, "31": {"stimulus": 54, "trial": 31, "rt": 1746, "response": "Beta"}, "30": {"stimulus": 13, "trial": 30, "rt": 443, "response": "Alpha"}, "37": {"stimulus": 47, "trial": 37, "rt": 803, "response": "Alpha"}, "36": {"stimulus": 22, "trial": 36, "rt": 482, "response": "Alpha"}, "35": {"stimulus": 16, "trial": 35, "rt": 772, "response": "Alpha"}, "34": {"stimulus": 76, "trial": 34, "rt": 995, "response": "Beta"}, "33": {"stimulus": 48, "trial": 33, "rt": 682, "response": "Alpha"}, "55": {"stimulus": 10, "trial": 55, "rt": 594, "response": "Alpha"}, "74": {"stimulus": 35, "trial": 74, "rt": 583, "response": "Alpha"}, "32": {"stimulus": 4, "trial": 32, "rt": 622, "response": "Alpha"}, "57": {"stimulus": 66, "trial": 57, "rt": 462, "response": "Beta"}, "50": {"stimulus": 44, "trial": 50, "rt": 632, "response": "Alpha"}}}