{"generation": {"1": {"stimulus": 62, "trial": 1, "rt": 8657}, "0": {"stimulus": 72, "trial": 0, "rt": 9608}, "3": {"stimulus": 68, "trial": 3, "rt": 4100}, "2": {"stimulus": 66, "trial": 2, "rt": 3299}}, "info": {"finish": 1488824617721, "participant": 235, "exposed": true, "lab": false, "start": 1488823155467, "counterbalance": 3, "condition": "Cluster", "browser": {"platform": "Win32", "userAgent": "Mozilla/5.0 (Windows NT 10.0; Win64; x64) AppleWebKit/537.36 (KHTML, like Gecko) Chrome/56.0.2924.87 Safari/537.36"}}, "experiment": {"Paradigm": "TACL", "Stimuli": "Size-Color Squares", "Experiment": "Generating-Categories"}, "observation": {"11": {"stimulus": 32, "trial": 11, "rt": 947}, "10": {"stimulus": 16, "trial": 10, "rt": 899}, "1": {"stimulus": 32, "trial": 1, "rt": 1768}, "0": {"stimulus": 34, "trial": 0, "rt": 3354}, "3": {"stimulus": 16, "trial": 3, "rt": 1053}, "2": {"stimulus": 14, "trial": 2, "rt": 1488}, "5": {"stimulus": 14, "trial": 5, "rt": 970}, "4": {"stimulus": 16, "trial": 4, "rt": 963}, "7": {"stimulus": 32, "trial": 7, "rt": 1051}, "6": {"stimulus": 34, "trial": 6, "rt": 1705}, "9": {"stimulus": 14, "trial": 9, "rt": 947}, "8": {"stimulus": 34, "trial": 8, "rt": 972}}, "generalization": {"56": {"stimulus": 61, "trial": 56, "rt": 595, "response": "Beta"}, "77": {"stimulus": 67, "trial": 77, "rt": 494, "response": "Beta"}, "54": {"stimulus": 16, "trial": 54, "rt": 234, "response": "Alpha"}, "42": {"stimulus": 8, "trial": 42, "rt": 365, "response": "Beta"}, "48": {"stimulus": 27, "trial": 48, "rt": 449, "response": "Alpha"}, "43": {"stimulus": 20, "trial": 43, "rt": 671, "response": "Alpha"}, "60": {"stimulus": 74, "trial": 60, "rt": 847, "response": "Beta"}, "61": {"stimulus": 70, "trial": 61, "rt": 478, "response": "Beta"}, "62": {"stimulus": 17, "trial": 62, "rt": 2053, "response": "Alpha"}, "63": {"stimulus": 45, "trial": 63, "rt": 16658, "response": "Beta"}, "64": {"stimulus": 78, "trial": 64, "rt": 583, "response": "Beta"}, "49": {"stimulus": 41, "trial": 49, "rt": 987, "response": "Beta"}, "66": {"stimulus": 28, "trial": 66, "rt": 411, "response": "Beta"}, "67": {"stimulus": 47, "trial": 67, "rt": 508, "response": "Beta"}, "68": {"stimulus": 71, "trial": 68, "rt": 637, "response": "Beta"}, "69": {"stimulus": 4, "trial": 69, "rt": 905, "response": "Alpha"}, "80": {"stimulus": 60, "trial": 80, "rt": 466, "response": "Beta"}, "52": {"stimulus": 30, "trial": 52, "rt": 385, "response": "Alpha"}, "53": {"stimulus": 15, "trial": 53, "rt": 381, "response": "Alpha"}, "24": {"stimulus": 9, "trial": 24, "rt": 479, "response": "Alpha"}, "25": {"stimulus": 33, "trial": 25, "rt": 582, "response": "Alpha"}, "26": {"stimulus": 36, "trial": 26, "rt": 954, "response": "Beta"}, "27": {"stimulus": 43, "trial": 27, "rt": 555, "response": "Beta"}, "20": {"stimulus": 37, "trial": 20, "rt": 855, "response": "Alpha"}, "21": {"stimulus": 40, "trial": 21, "rt": 606, "response": "Alpha"}, "22": {"stimulus": 24, "trial": 22, "rt": 527, "response": "Alpha"}, "23": {"stimulus": 10, "trial": 23, "rt": 499, "response": "Alpha"}, "46": {"stimulus": 29, "trial": 46, "rt": 995, "response": "Alpha"}, "47": {"stimulus": 1, "trial": 47, "rt": 428, "response": "Alpha"}, "44": {"stimulus": 59, "trial": 44, "rt": 3114, "response": "Beta"}, "45": {"stimulus": 12, "trial": 45, "rt": 900, "response": "Alpha"}, "28": {"stimulus": 32, "trial": 28, "rt": 891, "response": "Alpha"}, "29": {"stimulus": 23, "trial": 29, "rt": 542, "response": "Alpha"}, "40": {"stimulus": 62, "trial": 40, "rt": 424, "response": "Beta"}, "41": {"stimulus": 65, "trial": 41, "rt": 362, "response": "Beta"}, "1": {"stimulus": 19, "trial": 1, "rt": 928, "response": "Alpha"}, "0": {"stimulus": 79, "trial": 0, "rt": 1609, "response": "Beta"}, "3": {"stimulus": 49, "trial": 3, "rt": 1130, "response": "Beta"}, "2": {"stimulus": 21, "trial": 2, "rt": 548, "response": "Alpha"}, "5": {"stimulus": 64, "trial": 5, "rt": 843, "response": "Beta"}, "4": {"stimulus": 6, "trial": 4, "rt": 811, "response": "Alpha"}, "7": {"stimulus": 54, "trial": 7, "rt": 652, "response": "Beta"}, "6": {"stimulus": 68, "trial": 6, "rt": 527, "response": "Beta"}, "9": {"stimulus": 3, "trial": 9, "rt": 615, "response": "Alpha"}, "8": {"stimulus": 26, "trial": 8, "rt": 1015, "response": "Alpha"}, "78": {"stimulus": 63, "trial": 78, "rt": 474, "response": "Beta"}, "51": {"stimulus": 38, "trial": 51, "rt": 347, "response": "Alpha"}, "39": {"stimulus": 58, "trial": 39, "rt": 3282, "response": "Beta"}, "65": {"stimulus": 72, "trial": 65, "rt": 419, "response": "Beta"}, "76": {"stimulus": 35, "trial": 76, "rt": 660, "response": "Beta"}, "75": {"stimulus": 39, "trial": 75, "rt": 650, "response": "Beta"}, "38": {"stimulus": 14, "trial": 38, "rt": 1378, "response": "Alpha"}, "73": {"stimulus": 11, "trial": 73, "rt": 355, "response": "Alpha"}, "72": {"stimulus": 5, "trial": 72, "rt": 695, "response": "Alpha"}, "71": {"stimulus": 75, "trial": 71, "rt": 1318, "response": "Beta"}, "70": {"stimulus": 31, "trial": 70, "rt": 611, "response": "Alpha"}, "59": {"stimulus": 0, "trial": 59, "rt": 388, "response": "Alpha"}, "79": {"stimulus": 46, "trial": 79, "rt": 559, "response": "Beta"}, "58": {"stimulus": 2, "trial": 58, "rt": 628, "response": "Alpha"}, "11": {"stimulus": 77, "trial": 11, "rt": 936, "response": "Beta"}, "10": {"stimulus": 48, "trial": 10, "rt": 921, "response": "Alpha"}, "13": {"stimulus": 18, "trial": 13, "rt": 725, "response": "Alpha"}, "12": {"stimulus": 42, "trial": 12, "rt": 928, "response": "Alpha"}, "15": {"stimulus": 51, "trial": 15, "rt": 602, "response": "Beta"}, "14": {"stimulus": 56, "trial": 14, "rt": 763, "response": "Beta"}, "17": {"stimulus": 66, "trial": 17, "rt": 1458, "response": "Beta"}, "16": {"stimulus": 44, "trial": 16, "rt": 1690, "response": "Beta"}, "19": {"stimulus": 7, "trial": 19, "rt": 777, "response": "Alpha"}, "18": {"stimulus": 69, "trial": 18, "rt": 654, "response": "Beta"}, "31": {"stimulus": 34, "trial": 31, "rt": 87883, "response": "Alpha"}, "30": {"stimulus": 73, "trial": 30, "rt": 1262, "response": "Beta"}, "37": {"stimulus": 80, "trial": 37, "rt": 2120, "response": "Beta"}, "36": {"stimulus": 50, "trial": 36, "rt": 1479, "response": "Beta"}, "35": {"stimulus": 53, "trial": 35, "rt": 1053453, "response": "Beta"}, "34": {"stimulus": 57, "trial": 34, "rt": 991, "response": "Beta"}, "33": {"stimulus": 13, "trial": 33, "rt": 831, "response": "Alpha"}, "55": {"stimulus": 52, "trial": 55, "rt": 384, "response": "Alpha"}, "74": {"stimulus": 76, "trial": 74, "rt": 1115, "response": "Beta"}, "32": {"stimulus": 55, "trial": 32, "rt": 440, "response": "Alpha"}, "57": {"stimulus": 22, "trial": 57, "rt": 1132, "response": "Alpha"}, "50": {"stimulus": 25, "trial": 50, "rt": 2578, "response": "Alpha"}}}