{"generation": {"1": {"stimulus": 27, "trial": 1, "rt": 13639}, "0": {"stimulus": 72, "trial": 0, "rt": 14939}, "3": {"stimulus": 63, "trial": 3, "rt": 4332}, "2": {"stimulus": 54, "trial": 2, "rt": 4716}}, "info": {"finish": 1488823456976, "participant": 237, "exposed": true, "lab": false, "start": 1488823240387, "counterbalance": 0, "condition": "Cluster", "browser": {"platform": "Win32", "userAgent": "Mozilla/5.0 (Windows NT 6.1; WOW64; rv:51.0) Gecko/20100101 Firefox/51.0"}}, "experiment": {"Paradigm": "TACL", "Stimuli": "Size-Color Squares", "Experiment": "Generating-Categories"}, "observation": {"11": {"stimulus": 16, "trial": 11, "rt": 1087}, "10": {"stimulus": 34, "trial": 10, "rt": 988}, "1": {"stimulus": 14, "trial": 1, "rt": 1842}, "0": {"stimulus": 16, "trial": 0, "rt": 9962}, "3": {"stimulus": 34, "trial": 3, "rt": 1320}, "2": {"stimulus": 32, "trial": 2, "rt": 2534}, "5": {"stimulus": 34, "trial": 5, "rt": 795}, "4": {"stimulus": 16, "trial": 4, "rt": 737}, "7": {"stimulus": 14, "trial": 7, "rt": 1078}, "6": {"stimulus": 32, "trial": 6, "rt": 4266}, "9": {"stimulus": 32, "trial": 9, "rt": 643}, "8": {"stimulus": 14, "trial": 8, "rt": 1170}}, "generalization": {"56": {"stimulus": 27, "trial": 56, "rt": 1033, "response": "Beta"}, "77": {"stimulus": 46, "trial": 77, "rt": 382, "response": "Beta"}, "54": {"stimulus": 40, "trial": 54, "rt": 476, "response": "Alpha"}, "42": {"stimulus": 28, "trial": 42, "rt": 1406, "response": "Beta"}, "48": {"stimulus": 58, "trial": 48, "rt": 584, "response": "Alpha"}, "43": {"stimulus": 72, "trial": 43, "rt": 1719, "response": "Beta"}, "60": {"stimulus": 17, "trial": 60, "rt": 720, "response": "Alpha"}, "61": {"stimulus": 34, "trial": 61, "rt": 406, "response": "Alpha"}, "62": {"stimulus": 56, "trial": 62, "rt": 655, "response": "Beta"}, "63": {"stimulus": 42, "trial": 63, "rt": 388, "response": "Alpha"}, "64": {"stimulus": 37, "trial": 64, "rt": 305, "response": "Beta"}, "49": {"stimulus": 32, "trial": 49, "rt": 564, "response": "Alpha"}, "66": {"stimulus": 55, "trial": 66, "rt": 330, "response": "Beta"}, "67": {"stimulus": 69, "trial": 67, "rt": 1088, "response": "Alpha"}, "68": {"stimulus": 9, "trial": 68, "rt": 252, "response": "Beta"}, "69": {"stimulus": 7, "trial": 69, "rt": 478, "response": "Alpha"}, "80": {"stimulus": 47, "trial": 80, "rt": 410, "response": "Beta"}, "52": {"stimulus": 48, "trial": 52, "rt": 595, "response": "Alpha"}, "53": {"stimulus": 64, "trial": 53, "rt": 855, "response": "Beta"}, "24": {"stimulus": 51, "trial": 24, "rt": 117, "response": "Alpha"}, "25": {"stimulus": 54, "trial": 25, "rt": 490, "response": "Alpha"}, "26": {"stimulus": 60, "trial": 26, "rt": 491, "response": "Alpha"}, "27": {"stimulus": 73, "trial": 27, "rt": 5039, "response": "Alpha"}, "20": {"stimulus": 25, "trial": 20, "rt": 389, "response": "Alpha"}, "21": {"stimulus": 22, "trial": 21, "rt": 215, "response": "Alpha"}, "22": {"stimulus": 19, "trial": 22, "rt": 1108, "response": "Beta"}, "23": {"stimulus": 14, "trial": 23, "rt": 457, "response": "Beta"}, "46": {"stimulus": 15, "trial": 46, "rt": 1182, "response": "Alpha"}, "47": {"stimulus": 2, "trial": 47, "rt": 1560, "response": "Alpha"}, "44": {"stimulus": 8, "trial": 44, "rt": 658, "response": "Alpha"}, "45": {"stimulus": 13, "trial": 45, "rt": 525, "response": "Alpha"}, "28": {"stimulus": 66, "trial": 28, "rt": 13252, "response": "Alpha"}, "29": {"stimulus": 18, "trial": 29, "rt": 391, "response": "Alpha"}, "40": {"stimulus": 70, "trial": 40, "rt": 676, "response": "Alpha"}, "41": {"stimulus": 5, "trial": 41, "rt": 797, "response": "Alpha"}, "1": {"stimulus": 67, "trial": 1, "rt": 1007, "response": "Alpha"}, "0": {"stimulus": 63, "trial": 0, "rt": 2539, "response": "Beta"}, "3": {"stimulus": 75, "trial": 3, "rt": 594, "response": "Beta"}, "2": {"stimulus": 38, "trial": 2, "rt": 1239, "response": "Beta"}, "5": {"stimulus": 59, "trial": 5, "rt": 384, "response": "Alpha"}, "4": {"stimulus": 30, "trial": 4, "rt": 370, "response": "Alpha"}, "7": {"stimulus": 68, "trial": 7, "rt": 273, "response": "Alpha"}, "6": {"stimulus": 76, "trial": 6, "rt": 243, "response": "Alpha"}, "9": {"stimulus": 43, "trial": 9, "rt": 274, "response": "Alpha"}, "8": {"stimulus": 35, "trial": 8, "rt": 273, "response": "Alpha"}, "78": {"stimulus": 39, "trial": 78, "rt": 836, "response": "Alpha"}, "51": {"stimulus": 12, "trial": 51, "rt": 1484, "response": "Beta"}, "39": {"stimulus": 57, "trial": 39, "rt": 11725, "response": "Alpha"}, "65": {"stimulus": 45, "trial": 65, "rt": 202, "response": "Alpha"}, "76": {"stimulus": 80, "trial": 76, "rt": 571, "response": "Alpha"}, "75": {"stimulus": 20, "trial": 75, "rt": 603, "response": "Alpha"}, "38": {"stimulus": 52, "trial": 38, "rt": 543, "response": "Alpha"}, "73": {"stimulus": 31, "trial": 73, "rt": 551, "response": "Alpha"}, "72": {"stimulus": 61, "trial": 72, "rt": 881, "response": "Alpha"}, "71": {"stimulus": 10, "trial": 71, "rt": 871, "response": "Beta"}, "70": {"stimulus": 77, "trial": 70, "rt": 477, "response": "Alpha"}, "59": {"stimulus": 71, "trial": 59, "rt": 99, "response": "Alpha"}, "79": {"stimulus": 65, "trial": 79, "rt": 323, "response": "Beta"}, "58": {"stimulus": 16, "trial": 58, "rt": 391, "response": "Alpha"}, "11": {"stimulus": 6, "trial": 11, "rt": 426, "response": "Alpha"}, "10": {"stimulus": 4, "trial": 10, "rt": 297, "response": "Alpha"}, "13": {"stimulus": 23, "trial": 13, "rt": 2758, "response": "Alpha"}, "12": {"stimulus": 41, "trial": 12, "rt": 547, "response": "Alpha"}, "15": {"stimulus": 74, "trial": 15, "rt": 706, "response": "Beta"}, "14": {"stimulus": 29, "trial": 14, "rt": 4319, "response": "Alpha"}, "17": {"stimulus": 50, "trial": 17, "rt": 156, "response": "Alpha"}, "16": {"stimulus": 62, "trial": 16, "rt": 296, "response": "Alpha"}, "19": {"stimulus": 49, "trial": 19, "rt": 528, "response": "Alpha"}, "18": {"stimulus": 36, "trial": 18, "rt": 796, "response": "Beta"}, "31": {"stimulus": 78, "trial": 31, "rt": 877, "response": "Alpha"}, "30": {"stimulus": 0, "trial": 30, "rt": 767, "response": "Beta"}, "37": {"stimulus": 24, "trial": 37, "rt": 961, "response": "Alpha"}, "36": {"stimulus": 1, "trial": 36, "rt": 1497, "response": "Beta"}, "35": {"stimulus": 3, "trial": 35, "rt": 751, "response": "Beta"}, "34": {"stimulus": 21, "trial": 34, "rt": 873, "response": "Beta"}, "33": {"stimulus": 44, "trial": 33, "rt": 758, "response": "Alpha"}, "55": {"stimulus": 11, "trial": 55, "rt": 1187, "response": "Beta"}, "74": {"stimulus": 79, "trial": 74, "rt": 563, "response": "Alpha"}, "32": {"stimulus": 26, "trial": 32, "rt": 784, "response": "Alpha"}, "57": {"stimulus": 33, "trial": 57, "rt": 742, "response": "Alpha"}, "50": {"stimulus": 53, "trial": 50, "rt": 5872, "response": "Alpha"}}}