{"generation": {"1": {"stimulus": 8, "trial": 1, "rt": 25299}, "0": {"stimulus": 55, "trial": 0, "rt": 22930}, "3": {"stimulus": 67, "trial": 3, "rt": 57924}, "2": {"stimulus": 72, "trial": 2, "rt": 21056}}, "info": {"finish": 1488824480526, "participant": 238, "exposed": true, "lab": false, "start": 1488823330998, "counterbalance": 6, "condition": "XOR", "browser": {"platform": "Win32", "userAgent": "Mozilla/5.0 (Windows NT 6.1; WOW64; rv:51.0) Gecko/20100101 Firefox/51.0"}}, "experiment": {"Paradigm": "TACL", "Stimuli": "Size-Color Squares", "Experiment": "Generating-Categories"}, "observation": {"11": {"stimulus": 70, "trial": 11, "rt": 1951}, "10": {"stimulus": 0, "trial": 10, "rt": 1960}, "1": {"stimulus": 10, "trial": 1, "rt": 21011}, "0": {"stimulus": 70, "trial": 0, "rt": 69207}, "3": {"stimulus": 0, "trial": 3, "rt": 64866}, "2": {"stimulus": 80, "trial": 2, "rt": 24018}, "5": {"stimulus": 80, "trial": 5, "rt": 2989}, "4": {"stimulus": 70, "trial": 4, "rt": 6575}, "7": {"stimulus": 10, "trial": 7, "rt": 1928}, "6": {"stimulus": 0, "trial": 6, "rt": 3255}, "9": {"stimulus": 80, "trial": 9, "rt": 3353}, "8": {"stimulus": 10, "trial": 8, "rt": 3261}}, "generalization": {"56": {"stimulus": 72, "trial": 56, "rt": 6741, "response": "Beta"}, "77": {"stimulus": 3, "trial": 77, "rt": 6347, "response": "Beta"}, "54": {"stimulus": 60, "trial": 54, "rt": 1152, "response": "Alpha"}, "42": {"stimulus": 22, "trial": 42, "rt": 7752, "response": "Beta"}, "48": {"stimulus": 80, "trial": 48, "rt": 34912, "response": "Alpha"}, "43": {"stimulus": 8, "trial": 43, "rt": 6213, "response": "Beta"}, "60": {"stimulus": 38, "trial": 60, "rt": 6543, "response": "Alpha"}, "61": {"stimulus": 52, "trial": 61, "rt": 5884, "response": "Alpha"}, "62": {"stimulus": 50, "trial": 62, "rt": 5631, "response": "Alpha"}, "63": {"stimulus": 23, "trial": 63, "rt": 6461, "response": "Beta"}, "64": {"stimulus": 62, "trial": 64, "rt": 5630, "response": "Alpha"}, "49": {"stimulus": 10, "trial": 49, "rt": 4168, "response": "Alpha"}, "66": {"stimulus": 35, "trial": 66, "rt": 6988, "response": "Beta"}, "67": {"stimulus": 39, "trial": 67, "rt": 7032, "response": "Beta"}, "68": {"stimulus": 30, "trial": 68, "rt": 5471, "response": "Beta"}, "69": {"stimulus": 53, "trial": 69, "rt": 7807, "response": "Alpha"}, "80": {"stimulus": 65, "trial": 80, "rt": 20016, "response": "Beta"}, "52": {"stimulus": 56, "trial": 52, "rt": 13928, "response": "Beta"}, "53": {"stimulus": 78, "trial": 53, "rt": 3954, "response": "Alpha"}, "24": {"stimulus": 76, "trial": 24, "rt": 5726, "response": "Beta"}, "25": {"stimulus": 40, "trial": 25, "rt": 10525, "response": "Beta"}, "26": {"stimulus": 47, "trial": 26, "rt": 6665, "response": "Alpha"}, "27": {"stimulus": 77, "trial": 27, "rt": 7777, "response": "Beta"}, "20": {"stimulus": 49, "trial": 20, "rt": 25377, "response": "Beta"}, "21": {"stimulus": 32, "trial": 21, "rt": 6552, "response": "Beta"}, "22": {"stimulus": 59, "trial": 22, "rt": 15885, "response": "Beta"}, "23": {"stimulus": 75, "trial": 23, "rt": 8795, "response": "Beta"}, "46": {"stimulus": 71, "trial": 46, "rt": 6949, "response": "Alpha"}, "47": {"stimulus": 29, "trial": 47, "rt": 7932, "response": "Beta"}, "44": {"stimulus": 15, "trial": 44, "rt": 6829, "response": "Beta"}, "45": {"stimulus": 33, "trial": 45, "rt": 6341, "response": "Alpha"}, "28": {"stimulus": 14, "trial": 28, "rt": 26020, "response": "Beta"}, "29": {"stimulus": 11, "trial": 29, "rt": 16678, "response": "Alpha"}, "40": {"stimulus": 51, "trial": 40, "rt": 5160, "response": "Alpha"}, "41": {"stimulus": 9, "trial": 41, "rt": 10738, "response": "Alpha"}, "1": {"stimulus": 36, "trial": 1, "rt": 7667, "response": "Alpha"}, "0": {"stimulus": 5, "trial": 0, "rt": 11242, "response": "Beta"}, "3": {"stimulus": 12, "trial": 3, "rt": 10703, "response": "Beta"}, "2": {"stimulus": 17, "trial": 2, "rt": 7661, "response": "Beta"}, "5": {"stimulus": 79, "trial": 5, "rt": 5071, "response": "Alpha"}, "4": {"stimulus": 25, "trial": 4, "rt": 8676, "response": "Beta"}, "7": {"stimulus": 55, "trial": 7, "rt": 8789, "response": "Alpha"}, "6": {"stimulus": 27, "trial": 6, "rt": 5094, "response": "Alpha"}, "9": {"stimulus": 63, "trial": 9, "rt": 7971, "response": "Beta"}, "8": {"stimulus": 57, "trial": 8, "rt": 7261, "response": "Beta"}, "78": {"stimulus": 31, "trial": 78, "rt": 7137, "response": "Beta"}, "51": {"stimulus": 2, "trial": 51, "rt": 16721, "response": "Alpha"}, "39": {"stimulus": 37, "trial": 39, "rt": 6252, "response": "Beta"}, "65": {"stimulus": 54, "trial": 65, "rt": 8620, "response": "Beta"}, "76": {"stimulus": 41, "trial": 76, "rt": 6949, "response": "Beta"}, "75": {"stimulus": 73, "trial": 75, "rt": 6893, "response": "Beta"}, "38": {"stimulus": 20, "trial": 38, "rt": 7371, "response": "Alpha"}, "73": {"stimulus": 48, "trial": 73, "rt": 6728, "response": "Beta"}, "72": {"stimulus": 68, "trial": 72, "rt": 5580, "response": "Beta"}, "71": {"stimulus": 28, "trial": 71, "rt": 5155, "response": "Alpha"}, "70": {"stimulus": 1, "trial": 70, "rt": 6001, "response": "Alpha"}, "59": {"stimulus": 7, "trial": 59, "rt": 6284, "response": "Beta"}, "79": {"stimulus": 4, "trial": 79, "rt": 7702, "response": "Beta"}, "58": {"stimulus": 6, "trial": 58, "rt": 5799, "response": "Beta"}, "11": {"stimulus": 42, "trial": 11, "rt": 5061, "response": "Alpha"}, "10": {"stimulus": 67, "trial": 10, "rt": 5660, "response": "Beta"}, "13": {"stimulus": 64, "trial": 13, "rt": 14049, "response": "Beta"}, "12": {"stimulus": 46, "trial": 12, "rt": 11401, "response": "Alpha"}, "15": {"stimulus": 18, "trial": 15, "rt": 4380, "response": "Alpha"}, "14": {"stimulus": 43, "trial": 14, "rt": 4751, "response": "Alpha"}, "17": {"stimulus": 61, "trial": 17, "rt": 8959, "response": "Alpha"}, "16": {"stimulus": 24, "trial": 16, "rt": 7841, "response": "Beta"}, "19": {"stimulus": 16, "trial": 19, "rt": 5872, "response": "Beta"}, "18": {"stimulus": 19, "trial": 18, "rt": 7808, "response": "Alpha"}, "31": {"stimulus": 58, "trial": 31, "rt": 16680, "response": "Beta"}, "30": {"stimulus": 21, "trial": 30, "rt": 10957, "response": "Beta"}, "37": {"stimulus": 70, "trial": 37, "rt": 6151, "response": "Alpha"}, "36": {"stimulus": 13, "trial": 36, "rt": 48877, "response": "Beta"}, "35": {"stimulus": 74, "trial": 35, "rt": 6906, "response": "Beta"}, "34": {"stimulus": 44, "trial": 34, "rt": 1527, "response": "Alpha"}, "33": {"stimulus": 26, "trial": 33, "rt": 8239, "response": "Alpha"}, "55": {"stimulus": 34, "trial": 55, "rt": 11936, "response": "Beta"}, "74": {"stimulus": 69, "trial": 74, "rt": 3809, "response": "Alpha"}, "32": {"stimulus": 66, "trial": 32, "rt": 5656, "response": "Beta"}, "57": {"stimulus": 45, "trial": 57, "rt": 2569, "response": "Beta"}, "50": {"stimulus": 0, "trial": 50, "rt": 8051, "response": "Alpha"}}}