{"generation": {"1": {"stimulus": 0, "trial": 1, "rt": 5677}, "0": {"stimulus": 17, "trial": 0, "rt": 7482}, "3": {"stimulus": 13, "trial": 3, "rt": 6220}, "2": {"stimulus": 1, "trial": 2, "rt": 4980}}, "info": {"finish": 1488823599590, "participant": 239, "exposed": true, "lab": false, "start": 1488823346218, "counterbalance": 5, "condition": "Cluster", "browser": {"platform": "Win32", "userAgent": "Mozilla/5.0 (Windows NT 10.0; Win64; x64) AppleWebKit/537.36 (KHTML, like Gecko) Chrome/56.0.2924.87 Safari/537.36"}}, "experiment": {"Paradigm": "TACL", "Stimuli": "Size-Color Squares", "Experiment": "Generating-Categories"}, "observation": {"11": {"stimulus": 34, "trial": 11, "rt": 1381}, "10": {"stimulus": 14, "trial": 10, "rt": 1682}, "1": {"stimulus": 14, "trial": 1, "rt": 2082}, "0": {"stimulus": 32, "trial": 0, "rt": 2253}, "3": {"stimulus": 34, "trial": 3, "rt": 1514}, "2": {"stimulus": 16, "trial": 2, "rt": 2304}, "5": {"stimulus": 14, "trial": 5, "rt": 2901}, "4": {"stimulus": 34, "trial": 4, "rt": 2162}, "7": {"stimulus": 32, "trial": 7, "rt": 2052}, "6": {"stimulus": 16, "trial": 6, "rt": 1838}, "9": {"stimulus": 32, "trial": 9, "rt": 6545}, "8": {"stimulus": 16, "trial": 8, "rt": 4966}}, "generalization": {"56": {"stimulus": 1, "trial": 56, "rt": 715, "response": "Beta"}, "77": {"stimulus": 12, "trial": 77, "rt": 920, "response": "Beta"}, "54": {"stimulus": 44, "trial": 54, "rt": 765, "response": "Beta"}, "42": {"stimulus": 22, "trial": 42, "rt": 865, "response": "Beta"}, "48": {"stimulus": 45, "trial": 48, "rt": 1190, "response": "Alpha"}, "43": {"stimulus": 28, "trial": 43, "rt": 809, "response": "Beta"}, "60": {"stimulus": 55, "trial": 60, "rt": 716, "response": "Alpha"}, "61": {"stimulus": 38, "trial": 61, "rt": 1443, "response": "Alpha"}, "62": {"stimulus": 9, "trial": 62, "rt": 819, "response": "Beta"}, "63": {"stimulus": 16, "trial": 63, "rt": 606, "response": "Beta"}, "64": {"stimulus": 21, "trial": 64, "rt": 463, "response": "Beta"}, "49": {"stimulus": 67, "trial": 49, "rt": 684, "response": "Alpha"}, "66": {"stimulus": 48, "trial": 66, "rt": 771, "response": "Alpha"}, "67": {"stimulus": 53, "trial": 67, "rt": 834, "response": "Alpha"}, "68": {"stimulus": 8, "trial": 68, "rt": 935, "response": "Beta"}, "69": {"stimulus": 77, "trial": 69, "rt": 992, "response": "Alpha"}, "80": {"stimulus": 72, "trial": 80, "rt": 809, "response": "Alpha"}, "52": {"stimulus": 71, "trial": 52, "rt": 868, "response": "Alpha"}, "53": {"stimulus": 73, "trial": 53, "rt": 1407, "response": "Alpha"}, "24": {"stimulus": 42, "trial": 24, "rt": 849, "response": "Alpha"}, "25": {"stimulus": 14, "trial": 25, "rt": 671, "response": "Beta"}, "26": {"stimulus": 51, "trial": 26, "rt": 691, "response": "Alpha"}, "27": {"stimulus": 65, "trial": 27, "rt": 663, "response": "Alpha"}, "20": {"stimulus": 25, "trial": 20, "rt": 614, "response": "Beta"}, "21": {"stimulus": 34, "trial": 21, "rt": 519, "response": "Beta"}, "22": {"stimulus": 60, "trial": 22, "rt": 701, "response": "Alpha"}, "23": {"stimulus": 40, "trial": 23, "rt": 599, "response": "Alpha"}, "46": {"stimulus": 4, "trial": 46, "rt": 786, "response": "Beta"}, "47": {"stimulus": 30, "trial": 47, "rt": 1501, "response": "Alpha"}, "44": {"stimulus": 66, "trial": 44, "rt": 903, "response": "Alpha"}, "45": {"stimulus": 74, "trial": 45, "rt": 677, "response": "Alpha"}, "28": {"stimulus": 78, "trial": 28, "rt": 842, "response": "Alpha"}, "29": {"stimulus": 24, "trial": 29, "rt": 660, "response": "Beta"}, "40": {"stimulus": 80, "trial": 40, "rt": 1024, "response": "Alpha"}, "41": {"stimulus": 49, "trial": 41, "rt": 843, "response": "Beta"}, "1": {"stimulus": 10, "trial": 1, "rt": 866, "response": "Beta"}, "0": {"stimulus": 43, "trial": 0, "rt": 1767, "response": "Alpha"}, "3": {"stimulus": 62, "trial": 3, "rt": 1173, "response": "Alpha"}, "2": {"stimulus": 52, "trial": 2, "rt": 810, "response": "Alpha"}, "5": {"stimulus": 23, "trial": 5, "rt": 636, "response": "Beta"}, "4": {"stimulus": 26, "trial": 4, "rt": 857, "response": "Beta"}, "7": {"stimulus": 33, "trial": 7, "rt": 936, "response": "Alpha"}, "6": {"stimulus": 70, "trial": 6, "rt": 732, "response": "Alpha"}, "9": {"stimulus": 50, "trial": 9, "rt": 1430, "response": "Alpha"}, "8": {"stimulus": 61, "trial": 8, "rt": 1283, "response": "Alpha"}, "78": {"stimulus": 11, "trial": 78, "rt": 834, "response": "Beta"}, "51": {"stimulus": 35, "trial": 51, "rt": 901, "response": "Beta"}, "39": {"stimulus": 68, "trial": 39, "rt": 1036, "response": "Alpha"}, "65": {"stimulus": 69, "trial": 65, "rt": 751, "response": "Alpha"}, "76": {"stimulus": 79, "trial": 76, "rt": 670, "response": "Alpha"}, "75": {"stimulus": 0, "trial": 75, "rt": 982, "response": "Beta"}, "38": {"stimulus": 32, "trial": 38, "rt": 1291, "response": "Beta"}, "73": {"stimulus": 56, "trial": 73, "rt": 685, "response": "Alpha"}, "72": {"stimulus": 3, "trial": 72, "rt": 920, "response": "Beta"}, "71": {"stimulus": 58, "trial": 71, "rt": 640, "response": "Alpha"}, "70": {"stimulus": 7, "trial": 70, "rt": 1225, "response": "Beta"}, "59": {"stimulus": 57, "trial": 59, "rt": 637, "response": "Alpha"}, "79": {"stimulus": 5, "trial": 79, "rt": 662, "response": "Beta"}, "58": {"stimulus": 29, "trial": 58, "rt": 1408, "response": "Alpha"}, "11": {"stimulus": 59, "trial": 11, "rt": 925, "response": "Alpha"}, "10": {"stimulus": 27, "trial": 10, "rt": 699, "response": "Beta"}, "13": {"stimulus": 54, "trial": 13, "rt": 1204, "response": "Alpha"}, "12": {"stimulus": 19, "trial": 12, "rt": 669, "response": "Beta"}, "15": {"stimulus": 76, "trial": 15, "rt": 552, "response": "Alpha"}, "14": {"stimulus": 13, "trial": 14, "rt": 766, "response": "Beta"}, "17": {"stimulus": 75, "trial": 17, "rt": 699, "response": "Alpha"}, "16": {"stimulus": 64, "trial": 16, "rt": 590, "response": "Beta"}, "19": {"stimulus": 20, "trial": 19, "rt": 858, "response": "Beta"}, "18": {"stimulus": 36, "trial": 18, "rt": 1257, "response": "Beta"}, "31": {"stimulus": 47, "trial": 31, "rt": 1393, "response": "Alpha"}, "30": {"stimulus": 37, "trial": 30, "rt": 1171, "response": "Alpha"}, "37": {"stimulus": 46, "trial": 37, "rt": 918, "response": "Alpha"}, "36": {"stimulus": 41, "trial": 36, "rt": 778, "response": "Alpha"}, "35": {"stimulus": 18, "trial": 35, "rt": 993, "response": "Beta"}, "34": {"stimulus": 39, "trial": 34, "rt": 910, "response": "Alpha"}, "33": {"stimulus": 31, "trial": 33, "rt": 560, "response": "Beta"}, "55": {"stimulus": 63, "trial": 55, "rt": 1211, "response": "Alpha"}, "74": {"stimulus": 2, "trial": 74, "rt": 551, "response": "Beta"}, "32": {"stimulus": 15, "trial": 32, "rt": 1600, "response": "Beta"}, "57": {"stimulus": 6, "trial": 57, "rt": 882, "response": "Beta"}, "50": {"stimulus": 17, "trial": 50, "rt": 731, "response": "Beta"}}}