{"generation": {"1": {"stimulus": 74, "trial": 1, "rt": 10372}, "0": {"stimulus": 72, "trial": 0, "rt": 30900}, "3": {"stimulus": 78, "trial": 3, "rt": 11668}, "2": {"stimulus": 76, "trial": 2, "rt": 18532}}, "info": {"finish": 1488822131876, "participant": 24, "exposed": true, "lab": false, "start": 1488821835146, "counterbalance": 7, "condition": "Row", "browser": {"platform": "Win32", "userAgent": "Mozilla/5.0 (Windows NT 6.3; WOW64) AppleWebKit/537.36 (KHTML, like Gecko) Chrome/56.0.2924.87 Safari/537.36"}}, "experiment": {"Paradigm": "TACL", "Stimuli": "Size-Color Squares", "Experiment": "Generating-Categories"}, "observation": {"11": {"stimulus": 12, "trial": 11, "rt": 2332}, "10": {"stimulus": 16, "trial": 10, "rt": 2055}, "1": {"stimulus": 14, "trial": 1, "rt": 4360}, "0": {"stimulus": 12, "trial": 0, "rt": 5989}, "3": {"stimulus": 10, "trial": 3, "rt": 3831}, "2": {"stimulus": 16, "trial": 2, "rt": 2900}, "5": {"stimulus": 14, "trial": 5, "rt": 2519}, "4": {"stimulus": 12, "trial": 4, "rt": 2284}, "7": {"stimulus": 16, "trial": 7, "rt": 1990}, "6": {"stimulus": 10, "trial": 6, "rt": 2037}, "9": {"stimulus": 14, "trial": 9, "rt": 2516}, "8": {"stimulus": 10, "trial": 8, "rt": 3220}}, "generalization": {"56": {"stimulus": 17, "trial": 56, "rt": 1121, "response": "Alpha"}, "77": {"stimulus": 63, "trial": 77, "rt": 740, "response": "Beta"}, "54": {"stimulus": 47, "trial": 54, "rt": 849, "response": "Beta"}, "42": {"stimulus": 30, "trial": 42, "rt": 737, "response": "Alpha"}, "48": {"stimulus": 37, "trial": 48, "rt": 1607, "response": "Beta"}, "43": {"stimulus": 40, "trial": 43, "rt": 815, "response": "Alpha"}, "60": {"stimulus": 25, "trial": 60, "rt": 925, "response": "Alpha"}, "61": {"stimulus": 26, "trial": 61, "rt": 785, "response": "Alpha"}, "62": {"stimulus": 10, "trial": 62, "rt": 812, "response": "Alpha"}, "63": {"stimulus": 75, "trial": 63, "rt": 1071, "response": "Beta"}, "64": {"stimulus": 69, "trial": 64, "rt": 934, "response": "Beta"}, "49": {"stimulus": 46, "trial": 49, "rt": 1230, "response": "Beta"}, "66": {"stimulus": 0, "trial": 66, "rt": 1020, "response": "Alpha"}, "67": {"stimulus": 62, "trial": 67, "rt": 1119, "response": "Beta"}, "68": {"stimulus": 7, "trial": 68, "rt": 1083, "response": "Alpha"}, "69": {"stimulus": 20, "trial": 69, "rt": 1438, "response": "Beta"}, "80": {"stimulus": 61, "trial": 80, "rt": 775, "response": "Beta"}, "52": {"stimulus": 1, "trial": 52, "rt": 1080, "response": "Alpha"}, "53": {"stimulus": 34, "trial": 53, "rt": 1328, "response": "Beta"}, "24": {"stimulus": 11, "trial": 24, "rt": 909, "response": "Alpha"}, "25": {"stimulus": 12, "trial": 25, "rt": 776, "response": "Alpha"}, "26": {"stimulus": 54, "trial": 26, "rt": 1092, "response": "Beta"}, "27": {"stimulus": 44, "trial": 27, "rt": 1758, "response": "Alpha"}, "20": {"stimulus": 8, "trial": 20, "rt": 702, "response": "Alpha"}, "21": {"stimulus": 41, "trial": 21, "rt": 1512, "response": "Beta"}, "22": {"stimulus": 4, "trial": 22, "rt": 895, "response": "Alpha"}, "23": {"stimulus": 64, "trial": 23, "rt": 2347, "response": "Beta"}, "46": {"stimulus": 66, "trial": 46, "rt": 1621, "response": "Beta"}, "47": {"stimulus": 51, "trial": 47, "rt": 987, "response": "Beta"}, "44": {"stimulus": 57, "trial": 44, "rt": 1854, "response": "Beta"}, "45": {"stimulus": 2, "trial": 45, "rt": 996, "response": "Alpha"}, "28": {"stimulus": 70, "trial": 28, "rt": 1490, "response": "Beta"}, "29": {"stimulus": 21, "trial": 29, "rt": 1277, "response": "Alpha"}, "40": {"stimulus": 31, "trial": 40, "rt": 788, "response": "Alpha"}, "41": {"stimulus": 43, "trial": 41, "rt": 715, "response": "Alpha"}, "1": {"stimulus": 55, "trial": 1, "rt": 1953, "response": "Beta"}, "0": {"stimulus": 24, "trial": 0, "rt": 3976, "response": "Alpha"}, "3": {"stimulus": 39, "trial": 3, "rt": 1292, "response": "Alpha"}, "2": {"stimulus": 79, "trial": 2, "rt": 1205, "response": "Beta"}, "5": {"stimulus": 38, "trial": 5, "rt": 957, "response": "Alpha"}, "4": {"stimulus": 77, "trial": 4, "rt": 1895, "response": "Beta"}, "7": {"stimulus": 60, "trial": 7, "rt": 1142, "response": "Beta"}, "6": {"stimulus": 9, "trial": 6, "rt": 802, "response": "Alpha"}, "9": {"stimulus": 18, "trial": 9, "rt": 1291, "response": "Alpha"}, "8": {"stimulus": 15, "trial": 8, "rt": 1329, "response": "Alpha"}, "78": {"stimulus": 19, "trial": 78, "rt": 1280, "response": "Beta"}, "51": {"stimulus": 52, "trial": 51, "rt": 1548, "response": "Beta"}, "39": {"stimulus": 27, "trial": 39, "rt": 1055, "response": "Alpha"}, "65": {"stimulus": 58, "trial": 65, "rt": 1316, "response": "Beta"}, "76": {"stimulus": 59, "trial": 76, "rt": 640, "response": "Beta"}, "75": {"stimulus": 42, "trial": 75, "rt": 1496, "response": "Beta"}, "38": {"stimulus": 33, "trial": 38, "rt": 861, "response": "Alpha"}, "73": {"stimulus": 28, "trial": 73, "rt": 1527, "response": "Beta"}, "72": {"stimulus": 71, "trial": 72, "rt": 714, "response": "Beta"}, "71": {"stimulus": 53, "trial": 71, "rt": 726, "response": "Beta"}, "70": {"stimulus": 48, "trial": 70, "rt": 1304, "response": "Beta"}, "59": {"stimulus": 56, "trial": 59, "rt": 1290, "response": "Beta"}, "79": {"stimulus": 73, "trial": 79, "rt": 687, "response": "Beta"}, "58": {"stimulus": 16, "trial": 58, "rt": 958, "response": "Alpha"}, "11": {"stimulus": 5, "trial": 11, "rt": 1040, "response": "Alpha"}, "10": {"stimulus": 14, "trial": 10, "rt": 1080, "response": "Alpha"}, "13": {"stimulus": 29, "trial": 13, "rt": 1205, "response": "Alpha"}, "12": {"stimulus": 76, "trial": 12, "rt": 1266, "response": "Beta"}, "15": {"stimulus": 78, "trial": 15, "rt": 1240, "response": "Beta"}, "14": {"stimulus": 35, "trial": 14, "rt": 959, "response": "Alpha"}, "17": {"stimulus": 72, "trial": 17, "rt": 1008, "response": "Beta"}, "16": {"stimulus": 32, "trial": 16, "rt": 959, "response": "Alpha"}, "19": {"stimulus": 3, "trial": 19, "rt": 1093, "response": "Alpha"}, "18": {"stimulus": 68, "trial": 18, "rt": 824, "response": "Beta"}, "31": {"stimulus": 74, "trial": 31, "rt": 1133, "response": "Beta"}, "30": {"stimulus": 49, "trial": 30, "rt": 1119, "response": "Beta"}, "37": {"stimulus": 6, "trial": 37, "rt": 1265, "response": "Alpha"}, "36": {"stimulus": 65, "trial": 36, "rt": 1207, "response": "Beta"}, "35": {"stimulus": 13, "trial": 35, "rt": 851, "response": "Alpha"}, "34": {"stimulus": 22, "trial": 34, "rt": 1166, "response": "Alpha"}, "33": {"stimulus": 36, "trial": 33, "rt": 814, "response": "Alpha"}, "55": {"stimulus": 67, "trial": 55, "rt": 848, "response": "Beta"}, "74": {"stimulus": 45, "trial": 74, "rt": 778, "response": "Beta"}, "32": {"stimulus": 23, "trial": 32, "rt": 996, "response": "Alpha"}, "57": {"stimulus": 50, "trial": 57, "rt": 1586, "response": "Beta"}, "50": {"stimulus": 80, "trial": 50, "rt": 1342, "response": "Beta"}}}