{"generation": {"1": {"stimulus": 43, "trial": 1, "rt": 15376}, "0": {"stimulus": 53, "trial": 0, "rt": 35994}, "3": {"stimulus": 27, "trial": 3, "rt": 37295}, "2": {"stimulus": 31, "trial": 2, "rt": 14092}}, "info": {"finish": 1488823724355, "participant": 240, "exposed": true, "lab": false, "start": 1488823349823, "counterbalance": 0, "condition": "XOR", "browser": {"platform": "Win32", "userAgent": "Mozilla/5.0 (Windows NT 10.0; WOW64; rv:51.0) Gecko/20100101 Firefox/51.0"}}, "experiment": {"Paradigm": "TACL", "Stimuli": "Size-Color Squares", "Experiment": "Generating-Categories"}, "observation": {"11": {"stimulus": 80, "trial": 11, "rt": 1226}, "10": {"stimulus": 10, "trial": 10, "rt": 1352}, "1": {"stimulus": 80, "trial": 1, "rt": 2301}, "0": {"stimulus": 0, "trial": 0, "rt": 4127}, "3": {"stimulus": 70, "trial": 3, "rt": 1490}, "2": {"stimulus": 10, "trial": 2, "rt": 2075}, "5": {"stimulus": 0, "trial": 5, "rt": 1260}, "4": {"stimulus": 10, "trial": 4, "rt": 1860}, "7": {"stimulus": 70, "trial": 7, "rt": 1236}, "6": {"stimulus": 80, "trial": 6, "rt": 1181}, "9": {"stimulus": 0, "trial": 9, "rt": 1071}, "8": {"stimulus": 70, "trial": 8, "rt": 1070}}, "generalization": {"56": {"stimulus": 6, "trial": 56, "rt": 1071, "response": "Alpha"}, "77": {"stimulus": 20, "trial": 77, "rt": 12165, "response": "Beta"}, "54": {"stimulus": 19, "trial": 54, "rt": 504, "response": "Alpha"}, "42": {"stimulus": 70, "trial": 42, "rt": 728, "response": "Alpha"}, "48": {"stimulus": 1, "trial": 48, "rt": 674, "response": "Alpha"}, "43": {"stimulus": 25, "trial": 43, "rt": 1008, "response": "Beta"}, "60": {"stimulus": 41, "trial": 60, "rt": 1103, "response": "Beta"}, "61": {"stimulus": 60, "trial": 61, "rt": 2277, "response": "Beta"}, "62": {"stimulus": 5, "trial": 62, "rt": 922, "response": "Alpha"}, "63": {"stimulus": 72, "trial": 63, "rt": 720, "response": "Alpha"}, "64": {"stimulus": 31, "trial": 64, "rt": 2285, "response": "Beta"}, "49": {"stimulus": 50, "trial": 49, "rt": 1140, "response": "Beta"}, "66": {"stimulus": 18, "trial": 66, "rt": 1172, "response": "Alpha"}, "67": {"stimulus": 47, "trial": 67, "rt": 1094, "response": "Beta"}, "68": {"stimulus": 49, "trial": 68, "rt": 1007, "response": "Beta"}, "69": {"stimulus": 3, "trial": 69, "rt": 931, "response": "Alpha"}, "80": {"stimulus": 62, "trial": 80, "rt": 1265, "response": "Beta"}, "52": {"stimulus": 48, "trial": 52, "rt": 1117, "response": "Beta"}, "53": {"stimulus": 16, "trial": 53, "rt": 696, "response": "Alpha"}, "24": {"stimulus": 78, "trial": 24, "rt": 744, "response": "Alpha"}, "25": {"stimulus": 21, "trial": 25, "rt": 4340, "response": "Beta"}, "26": {"stimulus": 39, "trial": 26, "rt": 968, "response": "Beta"}, "27": {"stimulus": 64, "trial": 27, "rt": 1227, "response": "Alpha"}, "20": {"stimulus": 35, "trial": 20, "rt": 975, "response": "Beta"}, "21": {"stimulus": 23, "trial": 21, "rt": 5586, "response": "Alpha"}, "22": {"stimulus": 2, "trial": 22, "rt": 757, "response": "Alpha"}, "23": {"stimulus": 17, "trial": 23, "rt": 642, "response": "Alpha"}, "46": {"stimulus": 38, "trial": 46, "rt": 1204, "response": "Beta"}, "47": {"stimulus": 0, "trial": 47, "rt": 1281, "response": "Alpha"}, "44": {"stimulus": 55, "trial": 44, "rt": 791, "response": "Alpha"}, "45": {"stimulus": 58, "trial": 45, "rt": 4621, "response": "Alpha"}, "28": {"stimulus": 54, "trial": 28, "rt": 636, "response": "Alpha"}, "29": {"stimulus": 11, "trial": 29, "rt": 1147, "response": "Alpha"}, "40": {"stimulus": 65, "trial": 40, "rt": 720, "response": "Alpha"}, "41": {"stimulus": 7, "trial": 41, "rt": 728, "response": "Alpha"}, "1": {"stimulus": 24, "trial": 1, "rt": 2969, "response": "Beta"}, "0": {"stimulus": 9, "trial": 0, "rt": 6572, "response": "Alpha"}, "3": {"stimulus": 68, "trial": 3, "rt": 1217, "response": "Alpha"}, "2": {"stimulus": 32, "trial": 2, "rt": 1062, "response": "Beta"}, "5": {"stimulus": 53, "trial": 5, "rt": 2418, "response": "Beta"}, "4": {"stimulus": 56, "trial": 4, "rt": 1000, "response": "Alpha"}, "7": {"stimulus": 57, "trial": 7, "rt": 1194, "response": "Alpha"}, "6": {"stimulus": 45, "trial": 6, "rt": 1086, "response": "Beta"}, "9": {"stimulus": 29, "trial": 9, "rt": 1218, "response": "Beta"}, "8": {"stimulus": 13, "trial": 8, "rt": 814, "response": "Alpha"}, "78": {"stimulus": 46, "trial": 78, "rt": 1288, "response": "Beta"}, "51": {"stimulus": 69, "trial": 51, "rt": 1291, "response": "Beta"}, "39": {"stimulus": 59, "trial": 39, "rt": 4370, "response": "Alpha"}, "65": {"stimulus": 33, "trial": 65, "rt": 1251, "response": "Beta"}, "76": {"stimulus": 71, "trial": 76, "rt": 1967, "response": "Alpha"}, "75": {"stimulus": 80, "trial": 75, "rt": 2978, "response": "Alpha"}, "38": {"stimulus": 36, "trial": 38, "rt": 884, "response": "Beta"}, "73": {"stimulus": 52, "trial": 73, "rt": 1235, "response": "Beta"}, "72": {"stimulus": 67, "trial": 72, "rt": 1765, "response": "Alpha"}, "71": {"stimulus": 12, "trial": 71, "rt": 915, "response": "Alpha"}, "70": {"stimulus": 30, "trial": 70, "rt": 947, "response": "Beta"}, "59": {"stimulus": 63, "trial": 59, "rt": 947, "response": "Alpha"}, "79": {"stimulus": 75, "trial": 79, "rt": 952, "response": "Alpha"}, "58": {"stimulus": 22, "trial": 58, "rt": 2098, "response": "Beta"}, "11": {"stimulus": 14, "trial": 11, "rt": 869, "response": "Alpha"}, "10": {"stimulus": 43, "trial": 10, "rt": 1327, "response": "Beta"}, "13": {"stimulus": 44, "trial": 13, "rt": 1452, "response": "Beta"}, "12": {"stimulus": 34, "trial": 12, "rt": 1692, "response": "Beta"}, "15": {"stimulus": 66, "trial": 15, "rt": 813, "response": "Alpha"}, "14": {"stimulus": 73, "trial": 14, "rt": 1093, "response": "Alpha"}, "17": {"stimulus": 4, "trial": 17, "rt": 1405, "response": "Alpha"}, "16": {"stimulus": 76, "trial": 16, "rt": 798, "response": "Alpha"}, "19": {"stimulus": 51, "trial": 19, "rt": 1110, "response": "Beta"}, "18": {"stimulus": 79, "trial": 18, "rt": 853, "response": "Alpha"}, "31": {"stimulus": 74, "trial": 31, "rt": 899, "response": "Alpha"}, "30": {"stimulus": 40, "trial": 30, "rt": 1319, "response": "Beta"}, "37": {"stimulus": 27, "trial": 37, "rt": 898, "response": "Beta"}, "36": {"stimulus": 37, "trial": 36, "rt": 1001, "response": "Beta"}, "35": {"stimulus": 28, "trial": 35, "rt": 1250, "response": "Beta"}, "34": {"stimulus": 77, "trial": 34, "rt": 868, "response": "Alpha"}, "33": {"stimulus": 26, "trial": 33, "rt": 1263, "response": "Beta"}, "55": {"stimulus": 42, "trial": 55, "rt": 1614, "response": "Beta"}, "74": {"stimulus": 10, "trial": 74, "rt": 2034, "response": "Alpha"}, "32": {"stimulus": 15, "trial": 32, "rt": 1295, "response": "Alpha"}, "57": {"stimulus": 8, "trial": 57, "rt": 830, "response": "Alpha"}, "50": {"stimulus": 61, "trial": 50, "rt": 2828, "response": "Beta"}}}