{"generation": {"1": {"stimulus": 54, "trial": 1, "rt": 8307}, "0": {"stimulus": 72, "trial": 0, "rt": 26303}, "3": {"stimulus": 27, "trial": 3, "rt": 8993}, "2": {"stimulus": 18, "trial": 2, "rt": 3664}}, "info": {"finish": 1488823702785, "participant": 241, "exposed": true, "lab": false, "start": 1488823443969, "counterbalance": 4, "condition": "Cluster", "browser": {"platform": "Win32", "userAgent": "Mozilla/5.0 (Windows NT 6.1; Win64; x64) AppleWebKit/537.36 (KHTML, like Gecko) Chrome/56.0.2924.87 Safari/537.36"}}, "experiment": {"Paradigm": "TACL", "Stimuli": "Size-Color Squares", "Experiment": "Generating-Categories"}, "observation": {"11": {"stimulus": 34, "trial": 11, "rt": 1351}, "10": {"stimulus": 32, "trial": 10, "rt": 2740}, "1": {"stimulus": 32, "trial": 1, "rt": 2205}, "0": {"stimulus": 14, "trial": 0, "rt": 5310}, "3": {"stimulus": 16, "trial": 3, "rt": 2243}, "2": {"stimulus": 34, "trial": 2, "rt": 3658}, "5": {"stimulus": 32, "trial": 5, "rt": 1522}, "4": {"stimulus": 14, "trial": 4, "rt": 5466}, "7": {"stimulus": 16, "trial": 7, "rt": 1566}, "6": {"stimulus": 34, "trial": 6, "rt": 3407}, "9": {"stimulus": 14, "trial": 9, "rt": 1140}, "8": {"stimulus": 16, "trial": 8, "rt": 1340}}, "generalization": {"56": {"stimulus": 38, "trial": 56, "rt": 1627, "response": "Alpha"}, "77": {"stimulus": 50, "trial": 77, "rt": 704, "response": "Alpha"}, "54": {"stimulus": 22, "trial": 54, "rt": 588, "response": "Alpha"}, "42": {"stimulus": 1, "trial": 42, "rt": 555, "response": "Beta"}, "48": {"stimulus": 34, "trial": 48, "rt": 579, "response": "Alpha"}, "43": {"stimulus": 15, "trial": 43, "rt": 995, "response": "Alpha"}, "60": {"stimulus": 30, "trial": 60, "rt": 1713, "response": "Alpha"}, "61": {"stimulus": 78, "trial": 61, "rt": 458, "response": "Alpha"}, "62": {"stimulus": 9, "trial": 62, "rt": 836, "response": "Beta"}, "63": {"stimulus": 31, "trial": 63, "rt": 898, "response": "Alpha"}, "64": {"stimulus": 61, "trial": 64, "rt": 539, "response": "Alpha"}, "49": {"stimulus": 2, "trial": 49, "rt": 1794, "response": "Alpha"}, "66": {"stimulus": 51, "trial": 66, "rt": 507, "response": "Alpha"}, "67": {"stimulus": 74, "trial": 67, "rt": 659, "response": "Alpha"}, "68": {"stimulus": 17, "trial": 68, "rt": 491, "response": "Alpha"}, "69": {"stimulus": 32, "trial": 69, "rt": 467, "response": "Alpha"}, "80": {"stimulus": 54, "trial": 80, "rt": 780, "response": "Beta"}, "52": {"stimulus": 76, "trial": 52, "rt": 1042, "response": "Alpha"}, "53": {"stimulus": 60, "trial": 53, "rt": 563, "response": "Alpha"}, "24": {"stimulus": 75, "trial": 24, "rt": 1778, "response": "Beta"}, "25": {"stimulus": 4, "trial": 25, "rt": 2267, "response": "Alpha"}, "26": {"stimulus": 52, "trial": 26, "rt": 738, "response": "Alpha"}, "27": {"stimulus": 23, "trial": 27, "rt": 1106, "response": "Alpha"}, "20": {"stimulus": 62, "trial": 20, "rt": 595, "response": "Alpha"}, "21": {"stimulus": 0, "trial": 21, "rt": 1011, "response": "Beta"}, "22": {"stimulus": 18, "trial": 22, "rt": 912, "response": "Beta"}, "23": {"stimulus": 77, "trial": 23, "rt": 963, "response": "Beta"}, "46": {"stimulus": 65, "trial": 46, "rt": 1218, "response": "Alpha"}, "47": {"stimulus": 79, "trial": 47, "rt": 739, "response": "Alpha"}, "44": {"stimulus": 68, "trial": 44, "rt": 809, "response": "Alpha"}, "45": {"stimulus": 73, "trial": 45, "rt": 907, "response": "Beta"}, "28": {"stimulus": 33, "trial": 28, "rt": 595, "response": "Alpha"}, "29": {"stimulus": 43, "trial": 29, "rt": 547, "response": "Alpha"}, "40": {"stimulus": 28, "trial": 40, "rt": 993, "response": "Beta"}, "41": {"stimulus": 27, "trial": 41, "rt": 604, "response": "Beta"}, "1": {"stimulus": 8, "trial": 1, "rt": 1712, "response": "Alpha"}, "0": {"stimulus": 24, "trial": 0, "rt": 2335, "response": "Alpha"}, "3": {"stimulus": 37, "trial": 3, "rt": 922, "response": "Beta"}, "2": {"stimulus": 45, "trial": 2, "rt": 978, "response": "Beta"}, "5": {"stimulus": 44, "trial": 5, "rt": 1035, "response": "Alpha"}, "4": {"stimulus": 21, "trial": 4, "rt": 5458, "response": "Alpha"}, "7": {"stimulus": 46, "trial": 7, "rt": 931, "response": "Beta"}, "6": {"stimulus": 26, "trial": 6, "rt": 1325, "response": "Alpha"}, "9": {"stimulus": 48, "trial": 9, "rt": 4308, "response": "Alpha"}, "8": {"stimulus": 10, "trial": 8, "rt": 1057, "response": "Beta"}, "78": {"stimulus": 5, "trial": 78, "rt": 477, "response": "Alpha"}, "51": {"stimulus": 19, "trial": 51, "rt": 571, "response": "Beta"}, "39": {"stimulus": 40, "trial": 39, "rt": 739, "response": "Alpha"}, "65": {"stimulus": 39, "trial": 65, "rt": 587, "response": "Alpha"}, "76": {"stimulus": 80, "trial": 76, "rt": 659, "response": "Alpha"}, "75": {"stimulus": 20, "trial": 75, "rt": 698, "response": "Alpha"}, "38": {"stimulus": 25, "trial": 38, "rt": 910, "response": "Alpha"}, "73": {"stimulus": 14, "trial": 73, "rt": 746, "response": "Alpha"}, "72": {"stimulus": 55, "trial": 72, "rt": 659, "response": "Beta"}, "71": {"stimulus": 72, "trial": 71, "rt": 944, "response": "Beta"}, "70": {"stimulus": 35, "trial": 70, "rt": 458, "response": "Alpha"}, "59": {"stimulus": 63, "trial": 59, "rt": 851, "response": "Beta"}, "79": {"stimulus": 12, "trial": 79, "rt": 555, "response": "Alpha"}, "58": {"stimulus": 16, "trial": 58, "rt": 627, "response": "Alpha"}, "11": {"stimulus": 53, "trial": 11, "rt": 882, "response": "Alpha"}, "10": {"stimulus": 70, "trial": 10, "rt": 891, "response": "Alpha"}, "13": {"stimulus": 36, "trial": 13, "rt": 924, "response": "Beta"}, "12": {"stimulus": 67, "trial": 12, "rt": 2086, "response": "Alpha"}, "15": {"stimulus": 57, "trial": 15, "rt": 899, "response": "Alpha"}, "14": {"stimulus": 13, "trial": 14, "rt": 1435, "response": "Alpha"}, "17": {"stimulus": 49, "trial": 17, "rt": 634, "response": "Alpha"}, "16": {"stimulus": 6, "trial": 16, "rt": 1720, "response": "Alpha"}, "19": {"stimulus": 41, "trial": 19, "rt": 658, "response": "Alpha"}, "18": {"stimulus": 71, "trial": 18, "rt": 746, "response": "Alpha"}, "31": {"stimulus": 11, "trial": 31, "rt": 643, "response": "Beta"}, "30": {"stimulus": 56, "trial": 30, "rt": 970, "response": "Beta"}, "37": {"stimulus": 66, "trial": 37, "rt": 1497, "response": "Alpha"}, "36": {"stimulus": 69, "trial": 36, "rt": 757, "response": "Alpha"}, "35": {"stimulus": 7, "trial": 35, "rt": 603, "response": "Alpha"}, "34": {"stimulus": 42, "trial": 34, "rt": 1154, "response": "Alpha"}, "33": {"stimulus": 29, "trial": 33, "rt": 2468, "response": "Beta"}, "55": {"stimulus": 59, "trial": 55, "rt": 483, "response": "Alpha"}, "74": {"stimulus": 58, "trial": 74, "rt": 572, "response": "Alpha"}, "32": {"stimulus": 47, "trial": 32, "rt": 572, "response": "Beta"}, "57": {"stimulus": 3, "trial": 57, "rt": 524, "response": "Alpha"}, "50": {"stimulus": 64, "trial": 50, "rt": 770, "response": "Beta"}}}