{"generation": {"1": {"stimulus": 8, "trial": 1, "rt": 6186}, "0": {"stimulus": 24, "trial": 0, "rt": 14036}, "3": {"stimulus": 40, "trial": 3, "rt": 3090}, "2": {"stimulus": 51, "trial": 2, "rt": 3566}}, "info": {"finish": 1488823713086, "participant": 242, "exposed": true, "lab": false, "start": 1488823462683, "counterbalance": 0, "condition": "XOR", "browser": {"platform": "Win32", "userAgent": "Mozilla/5.0 (Windows NT 10.0; WOW64) AppleWebKit/537.36 (KHTML, like Gecko) Chrome/56.0.2924.87 Safari/537.36"}}, "experiment": {"Paradigm": "TACL", "Stimuli": "Size-Color Squares", "Experiment": "Generating-Categories"}, "observation": {"11": {"stimulus": 10, "trial": 11, "rt": 1604}, "10": {"stimulus": 80, "trial": 10, "rt": 1133}, "1": {"stimulus": 0, "trial": 1, "rt": 1650}, "0": {"stimulus": 10, "trial": 0, "rt": 3479}, "3": {"stimulus": 70, "trial": 3, "rt": 1449}, "2": {"stimulus": 80, "trial": 2, "rt": 1575}, "5": {"stimulus": 10, "trial": 5, "rt": 1376}, "4": {"stimulus": 80, "trial": 4, "rt": 1622}, "7": {"stimulus": 70, "trial": 7, "rt": 4079}, "6": {"stimulus": 0, "trial": 6, "rt": 1117}, "9": {"stimulus": 70, "trial": 9, "rt": 1937}, "8": {"stimulus": 0, "trial": 8, "rt": 1242}}, "generalization": {"56": {"stimulus": 72, "trial": 56, "rt": 506, "response": "Alpha"}, "77": {"stimulus": 40, "trial": 77, "rt": 489, "response": "Alpha"}, "54": {"stimulus": 28, "trial": 54, "rt": 608, "response": "Alpha"}, "42": {"stimulus": 4, "trial": 42, "rt": 435, "response": "Alpha"}, "48": {"stimulus": 75, "trial": 48, "rt": 514, "response": "Alpha"}, "43": {"stimulus": 22, "trial": 43, "rt": 1226, "response": "Alpha"}, "60": {"stimulus": 9, "trial": 60, "rt": 615, "response": "Alpha"}, "61": {"stimulus": 37, "trial": 61, "rt": 890, "response": "Alpha"}, "62": {"stimulus": 29, "trial": 62, "rt": 928, "response": "Alpha"}, "63": {"stimulus": 62, "trial": 63, "rt": 586, "response": "Alpha"}, "64": {"stimulus": 13, "trial": 64, "rt": 969, "response": "Beta"}, "49": {"stimulus": 48, "trial": 49, "rt": 513, "response": "Alpha"}, "66": {"stimulus": 39, "trial": 66, "rt": 684, "response": "Alpha"}, "67": {"stimulus": 26, "trial": 67, "rt": 1017, "response": "Beta"}, "68": {"stimulus": 5, "trial": 68, "rt": 1070, "response": "Alpha"}, "69": {"stimulus": 41, "trial": 69, "rt": 756, "response": "Alpha"}, "80": {"stimulus": 44, "trial": 80, "rt": 549, "response": "Alpha"}, "52": {"stimulus": 53, "trial": 52, "rt": 1519, "response": "Alpha"}, "53": {"stimulus": 38, "trial": 53, "rt": 451, "response": "Alpha"}, "24": {"stimulus": 49, "trial": 24, "rt": 653, "response": "Alpha"}, "25": {"stimulus": 56, "trial": 25, "rt": 906, "response": "Alpha"}, "26": {"stimulus": 79, "trial": 26, "rt": 512, "response": "Alpha"}, "27": {"stimulus": 58, "trial": 27, "rt": 473, "response": "Alpha"}, "20": {"stimulus": 70, "trial": 20, "rt": 734, "response": "Alpha"}, "21": {"stimulus": 76, "trial": 21, "rt": 606, "response": "Alpha"}, "22": {"stimulus": 73, "trial": 22, "rt": 592, "response": "Alpha"}, "23": {"stimulus": 64, "trial": 23, "rt": 552, "response": "Alpha"}, "46": {"stimulus": 23, "trial": 46, "rt": 1095, "response": "Beta"}, "47": {"stimulus": 43, "trial": 47, "rt": 1030, "response": "Alpha"}, "44": {"stimulus": 16, "trial": 44, "rt": 828, "response": "Alpha"}, "45": {"stimulus": 66, "trial": 45, "rt": 536, "response": "Alpha"}, "28": {"stimulus": 17, "trial": 28, "rt": 914, "response": "Beta"}, "29": {"stimulus": 59, "trial": 29, "rt": 581, "response": "Alpha"}, "40": {"stimulus": 78, "trial": 40, "rt": 591, "response": "Alpha"}, "41": {"stimulus": 19, "trial": 41, "rt": 1173, "response": "Beta"}, "1": {"stimulus": 52, "trial": 1, "rt": 1141, "response": "Alpha"}, "0": {"stimulus": 10, "trial": 0, "rt": 1452, "response": "Alpha"}, "3": {"stimulus": 0, "trial": 3, "rt": 946, "response": "Beta"}, "2": {"stimulus": 60, "trial": 2, "rt": 699, "response": "Alpha"}, "5": {"stimulus": 47, "trial": 5, "rt": 1495, "response": "Alpha"}, "4": {"stimulus": 21, "trial": 4, "rt": 1194, "response": "Beta"}, "7": {"stimulus": 74, "trial": 7, "rt": 994, "response": "Alpha"}, "6": {"stimulus": 11, "trial": 6, "rt": 942, "response": "Beta"}, "9": {"stimulus": 24, "trial": 9, "rt": 851, "response": "Beta"}, "8": {"stimulus": 57, "trial": 8, "rt": 667, "response": "Alpha"}, "78": {"stimulus": 68, "trial": 78, "rt": 537, "response": "Alpha"}, "51": {"stimulus": 7, "trial": 51, "rt": 968, "response": "Beta"}, "39": {"stimulus": 30, "trial": 39, "rt": 483, "response": "Alpha"}, "65": {"stimulus": 1, "trial": 65, "rt": 802, "response": "Beta"}, "76": {"stimulus": 77, "trial": 76, "rt": 637, "response": "Alpha"}, "75": {"stimulus": 50, "trial": 75, "rt": 527, "response": "Alpha"}, "38": {"stimulus": 51, "trial": 38, "rt": 496, "response": "Alpha"}, "73": {"stimulus": 63, "trial": 73, "rt": 644, "response": "Alpha"}, "72": {"stimulus": 3, "trial": 72, "rt": 976, "response": "Beta"}, "71": {"stimulus": 27, "trial": 71, "rt": 591, "response": "Alpha"}, "70": {"stimulus": 18, "trial": 70, "rt": 669, "response": "Alpha"}, "59": {"stimulus": 65, "trial": 59, "rt": 1109, "response": "Alpha"}, "79": {"stimulus": 6, "trial": 79, "rt": 554, "response": "Alpha"}, "58": {"stimulus": 15, "trial": 58, "rt": 970, "response": "Beta"}, "11": {"stimulus": 45, "trial": 11, "rt": 513, "response": "Alpha"}, "10": {"stimulus": 36, "trial": 10, "rt": 883, "response": "Alpha"}, "13": {"stimulus": 34, "trial": 13, "rt": 950, "response": "Beta"}, "12": {"stimulus": 54, "trial": 12, "rt": 505, "response": "Alpha"}, "15": {"stimulus": 33, "trial": 15, "rt": 757, "response": "Alpha"}, "14": {"stimulus": 2, "trial": 14, "rt": 976, "response": "Alpha"}, "17": {"stimulus": 71, "trial": 17, "rt": 585, "response": "Alpha"}, "16": {"stimulus": 61, "trial": 16, "rt": 889, "response": "Alpha"}, "19": {"stimulus": 12, "trial": 19, "rt": 1087, "response": "Beta"}, "18": {"stimulus": 69, "trial": 18, "rt": 591, "response": "Alpha"}, "31": {"stimulus": 32, "trial": 31, "rt": 543, "response": "Alpha"}, "30": {"stimulus": 55, "trial": 30, "rt": 441, "response": "Alpha"}, "37": {"stimulus": 67, "trial": 37, "rt": 754, "response": "Alpha"}, "36": {"stimulus": 42, "trial": 36, "rt": 496, "response": "Beta"}, "35": {"stimulus": 20, "trial": 35, "rt": 984, "response": "Beta"}, "34": {"stimulus": 14, "trial": 34, "rt": 481, "response": "Alpha"}, "33": {"stimulus": 25, "trial": 33, "rt": 915, "response": "Beta"}, "55": {"stimulus": 35, "trial": 55, "rt": 684, "response": "Alpha"}, "74": {"stimulus": 8, "trial": 74, "rt": 451, "response": "Alpha"}, "32": {"stimulus": 46, "trial": 32, "rt": 514, "response": "Alpha"}, "57": {"stimulus": 31, "trial": 57, "rt": 592, "response": "Alpha"}, "50": {"stimulus": 80, "trial": 50, "rt": 638, "response": "Alpha"}}}