{"generation": {"1": {"stimulus": 25, "trial": 1, "rt": 4418}, "0": {"stimulus": 0, "trial": 0, "rt": 16020}, "3": {"stimulus": 78, "trial": 3, "rt": 2985}, "2": {"stimulus": 23, "trial": 2, "rt": 5754}}, "info": {"finish": 1488823842277, "participant": 246, "exposed": true, "lab": false, "start": 1488823576920, "counterbalance": 0, "condition": "XOR", "browser": {"platform": "Win32", "userAgent": "Mozilla/5.0 (Windows NT 6.1) AppleWebKit/537.36 (KHTML, like Gecko) Chrome/56.0.2924.87 Safari/537.36"}}, "experiment": {"Paradigm": "TACL", "Stimuli": "Size-Color Squares", "Experiment": "Generating-Categories"}, "observation": {"11": {"stimulus": 10, "trial": 11, "rt": 890}, "10": {"stimulus": 80, "trial": 10, "rt": 874}, "1": {"stimulus": 80, "trial": 1, "rt": 1012}, "0": {"stimulus": 70, "trial": 0, "rt": 10254}, "3": {"stimulus": 10, "trial": 3, "rt": 753}, "2": {"stimulus": 0, "trial": 2, "rt": 1073}, "5": {"stimulus": 10, "trial": 5, "rt": 801}, "4": {"stimulus": 0, "trial": 4, "rt": 1047}, "7": {"stimulus": 80, "trial": 7, "rt": 960}, "6": {"stimulus": 70, "trial": 6, "rt": 1203}, "9": {"stimulus": 70, "trial": 9, "rt": 873}, "8": {"stimulus": 0, "trial": 8, "rt": 914}}, "generalization": {"56": {"stimulus": 39, "trial": 56, "rt": 380, "response": "Alpha"}, "77": {"stimulus": 22, "trial": 77, "rt": 373, "response": "Alpha"}, "54": {"stimulus": 45, "trial": 54, "rt": 464, "response": "Beta"}, "42": {"stimulus": 47, "trial": 42, "rt": 2271, "response": "Beta"}, "48": {"stimulus": 42, "trial": 48, "rt": 989, "response": "Beta"}, "43": {"stimulus": 73, "trial": 43, "rt": 332, "response": "Beta"}, "60": {"stimulus": 75, "trial": 60, "rt": 310, "response": "Beta"}, "61": {"stimulus": 7, "trial": 61, "rt": 175, "response": "Beta"}, "62": {"stimulus": 80, "trial": 62, "rt": 142, "response": "Alpha"}, "63": {"stimulus": 71, "trial": 63, "rt": 206, "response": "Alpha"}, "64": {"stimulus": 34, "trial": 64, "rt": 256, "response": "Alpha"}, "49": {"stimulus": 68, "trial": 49, "rt": 56797, "response": "Beta"}, "66": {"stimulus": 69, "trial": 66, "rt": 681, "response": "Beta"}, "67": {"stimulus": 26, "trial": 67, "rt": 297, "response": "Beta"}, "68": {"stimulus": 37, "trial": 68, "rt": 184, "response": "Alpha"}, "69": {"stimulus": 55, "trial": 69, "rt": 292, "response": "Alpha"}, "80": {"stimulus": 13, "trial": 80, "rt": 236, "response": "Alpha"}, "52": {"stimulus": 41, "trial": 52, "rt": 590, "response": "Alpha"}, "53": {"stimulus": 15, "trial": 53, "rt": 9125, "response": "Beta"}, "24": {"stimulus": 2, "trial": 24, "rt": 586, "response": "Beta"}, "25": {"stimulus": 8, "trial": 25, "rt": 641, "response": "Beta"}, "26": {"stimulus": 30, "trial": 26, "rt": 637, "response": "Alpha"}, "27": {"stimulus": 10, "trial": 27, "rt": 405, "response": "Alpha"}, "20": {"stimulus": 52, "trial": 20, "rt": 389, "response": "Alpha"}, "21": {"stimulus": 4, "trial": 21, "rt": 673, "response": "Alpha"}, "22": {"stimulus": 28, "trial": 22, "rt": 656, "response": "Alpha"}, "23": {"stimulus": 38, "trial": 23, "rt": 590, "response": "Beta"}, "46": {"stimulus": 17, "trial": 46, "rt": 427, "response": "Beta"}, "47": {"stimulus": 0, "trial": 47, "rt": 967, "response": "Beta"}, "44": {"stimulus": 25, "trial": 44, "rt": 310, "response": "Alpha"}, "45": {"stimulus": 60, "trial": 45, "rt": 346, "response": "Beta"}, "28": {"stimulus": 61, "trial": 28, "rt": 352, "response": "Alpha"}, "29": {"stimulus": 57, "trial": 29, "rt": 392, "response": "Alpha"}, "40": {"stimulus": 70, "trial": 40, "rt": 4432, "response": "Beta"}, "41": {"stimulus": 63, "trial": 41, "rt": 747, "response": "Alpha"}, "1": {"stimulus": 49, "trial": 1, "rt": 492, "response": "Alpha"}, "0": {"stimulus": 36, "trial": 0, "rt": 1096, "response": "Alpha"}, "3": {"stimulus": 48, "trial": 3, "rt": 325, "response": "Beta"}, "2": {"stimulus": 29, "trial": 2, "rt": 355, "response": "Beta"}, "5": {"stimulus": 59, "trial": 5, "rt": 242, "response": "Alpha"}, "4": {"stimulus": 74, "trial": 4, "rt": 303, "response": "Beta"}, "7": {"stimulus": 20, "trial": 7, "rt": 241, "response": "Alpha"}, "6": {"stimulus": 79, "trial": 6, "rt": 203, "response": "Beta"}, "9": {"stimulus": 77, "trial": 9, "rt": 400, "response": "Alpha"}, "8": {"stimulus": 9, "trial": 8, "rt": 527, "response": "Beta"}, "78": {"stimulus": 27, "trial": 78, "rt": 469, "response": "Alpha"}, "51": {"stimulus": 31, "trial": 51, "rt": 2386, "response": "Alpha"}, "39": {"stimulus": 53, "trial": 39, "rt": 234, "response": "Alpha"}, "65": {"stimulus": 66, "trial": 65, "rt": 254, "response": "Alpha"}, "76": {"stimulus": 11, "trial": 76, "rt": 787, "response": "Alpha"}, "75": {"stimulus": 5, "trial": 75, "rt": 422, "response": "Beta"}, "38": {"stimulus": 18, "trial": 38, "rt": 424, "response": "Alpha"}, "73": {"stimulus": 12, "trial": 73, "rt": 221, "response": "Beta"}, "72": {"stimulus": 43, "trial": 72, "rt": 213, "response": "Beta"}, "71": {"stimulus": 19, "trial": 71, "rt": 253, "response": "Beta"}, "70": {"stimulus": 50, "trial": 70, "rt": 306, "response": "Beta"}, "59": {"stimulus": 6, "trial": 59, "rt": 258, "response": "Alpha"}, "79": {"stimulus": 72, "trial": 79, "rt": 308, "response": "Alpha"}, "58": {"stimulus": 67, "trial": 58, "rt": 351, "response": "Beta"}, "11": {"stimulus": 21, "trial": 11, "rt": 788, "response": "Beta"}, "10": {"stimulus": 14, "trial": 10, "rt": 676, "response": "Beta"}, "13": {"stimulus": 76, "trial": 13, "rt": 564, "response": "Alpha"}, "12": {"stimulus": 62, "trial": 12, "rt": 689, "response": "Alpha"}, "15": {"stimulus": 3, "trial": 15, "rt": 373, "response": "Beta"}, "14": {"stimulus": 54, "trial": 14, "rt": 703, "response": "Beta"}, "17": {"stimulus": 24, "trial": 17, "rt": 355, "response": "Alpha"}, "16": {"stimulus": 46, "trial": 16, "rt": 392, "response": "Alpha"}, "19": {"stimulus": 64, "trial": 19, "rt": 373, "response": "Beta"}, "18": {"stimulus": 33, "trial": 18, "rt": 435, "response": "Beta"}, "31": {"stimulus": 44, "trial": 31, "rt": 8793, "response": "Alpha"}, "30": {"stimulus": 56, "trial": 30, "rt": 269, "response": "Alpha"}, "37": {"stimulus": 35, "trial": 37, "rt": 355, "response": "Beta"}, "36": {"stimulus": 23, "trial": 36, "rt": 439, "response": "Beta"}, "35": {"stimulus": 58, "trial": 35, "rt": 208, "response": "Beta"}, "34": {"stimulus": 65, "trial": 34, "rt": 204, "response": "Beta"}, "33": {"stimulus": 40, "trial": 33, "rt": 741, "response": "Beta"}, "55": {"stimulus": 32, "trial": 55, "rt": 338, "response": "Beta"}, "74": {"stimulus": 1, "trial": 74, "rt": 273, "response": "Beta"}, "32": {"stimulus": 16, "trial": 32, "rt": 321, "response": "Alpha"}, "57": {"stimulus": 78, "trial": 57, "rt": 787, "response": "Beta"}, "50": {"stimulus": 51, "trial": 50, "rt": 441, "response": "Beta"}}}