{"generation": {"1": {"stimulus": 72, "trial": 1, "rt": 5634}, "0": {"stimulus": 77, "trial": 0, "rt": 16143}, "3": {"stimulus": 74, "trial": 3, "rt": 10359}, "2": {"stimulus": 73, "trial": 2, "rt": 4972}}, "info": {"participant": 247, "exposed": true, "lab": false, "start": 1488823651226, "counterbalance": 0, "condition": "XOR", "browser": {"platform": "Win32", "userAgent": "Mozilla/5.0 (Windows NT 6.2; Win64; x64) AppleWebKit/537.36 (KHTML, like Gecko) Chrome/56.0.2924.87 Safari/537.36"}}, "experiment": {"Paradigm": "TACL", "Stimuli": "Size-Color Squares", "Experiment": "Generating-Categories"}, "observation": {"11": {"stimulus": 0, "trial": 11, "rt": 654}, "10": {"stimulus": 70, "trial": 10, "rt": 791}, "1": {"stimulus": 80, "trial": 1, "rt": 2101}, "0": {"stimulus": 70, "trial": 0, "rt": 3606}, "3": {"stimulus": 0, "trial": 3, "rt": 1068}, "2": {"stimulus": 10, "trial": 2, "rt": 1618}, "5": {"stimulus": 10, "trial": 5, "rt": 1540}, "4": {"stimulus": 0, "trial": 4, "rt": 1099}, "7": {"stimulus": 70, "trial": 7, "rt": 930}, "6": {"stimulus": 80, "trial": 6, "rt": 1113}, "9": {"stimulus": 10, "trial": 9, "rt": 733}, "8": {"stimulus": 80, "trial": 8, "rt": 27041}}, "generalization": {"56": {"stimulus": 14, "trial": 56, "rt": 519, "response": "Alpha"}, "77": {"stimulus": 32, "trial": 77, "rt": 407, "response": "Alpha"}, "54": {"stimulus": 61, "trial": 54, "rt": 562, "response": "Alpha"}, "42": {"stimulus": 28, "trial": 42, "rt": 547, "response": "Alpha"}, "48": {"stimulus": 7, "trial": 48, "rt": 440, "response": "Alpha"}, "43": {"stimulus": 57, "trial": 43, "rt": 670, "response": "Alpha"}, "60": {"stimulus": 2, "trial": 60, "rt": 365, "response": "Alpha"}, "61": {"stimulus": 23, "trial": 61, "rt": 608, "response": "Alpha"}, "62": {"stimulus": 31, "trial": 62, "rt": 516, "response": "Alpha"}, "63": {"stimulus": 12, "trial": 63, "rt": 469, "response": "Alpha"}, "64": {"stimulus": 59, "trial": 64, "rt": 1506, "response": "Alpha"}, "49": {"stimulus": 16, "trial": 49, "rt": 456, "response": "Alpha"}, "66": {"stimulus": 62, "trial": 66, "rt": 1761, "response": "Beta"}, "67": {"stimulus": 38, "trial": 67, "rt": 472, "response": "Alpha"}, "68": {"stimulus": 25, "trial": 68, "rt": 488, "response": "Alpha"}, "69": {"stimulus": 34, "trial": 69, "rt": 3690, "response": "Alpha"}, "80": {"stimulus": 40, "trial": 80, "rt": 1222, "response": "Alpha"}, "52": {"stimulus": 27, "trial": 52, "rt": 844, "response": "Alpha"}, "53": {"stimulus": 22, "trial": 53, "rt": 428, "response": "Alpha"}, "24": {"stimulus": 36, "trial": 24, "rt": 593, "response": "Alpha"}, "25": {"stimulus": 70, "trial": 25, "rt": 701, "response": "Alpha"}, "26": {"stimulus": 66, "trial": 26, "rt": 984, "response": "Beta"}, "27": {"stimulus": 33, "trial": 27, "rt": 341, "response": "Alpha"}, "20": {"stimulus": 30, "trial": 20, "rt": 441, "response": "Alpha"}, "21": {"stimulus": 80, "trial": 21, "rt": 1978, "response": "Beta"}, "22": {"stimulus": 35, "trial": 22, "rt": 510, "response": "Alpha"}, "23": {"stimulus": 18, "trial": 23, "rt": 318, "response": "Alpha"}, "46": {"stimulus": 51, "trial": 46, "rt": 686, "response": "Alpha"}, "47": {"stimulus": 11, "trial": 47, "rt": 489, "response": "Alpha"}, "44": {"stimulus": 9, "trial": 44, "rt": 778, "response": "Alpha"}, "45": {"stimulus": 37, "trial": 45, "rt": 715, "response": "Alpha"}, "28": {"stimulus": 17, "trial": 28, "rt": 381, "response": "Alpha"}, "29": {"stimulus": 24, "trial": 29, "rt": 378, "response": "Alpha"}, "40": {"stimulus": 75, "trial": 40, "rt": 1248, "response": "Beta"}, "41": {"stimulus": 13, "trial": 41, "rt": 426, "response": "Alpha"}, "1": {"stimulus": 42, "trial": 1, "rt": 1144, "response": "Alpha"}, "0": {"stimulus": 71, "trial": 0, "rt": 2034, "response": "Alpha"}, "3": {"stimulus": 76, "trial": 3, "rt": 1234, "response": "Beta"}, "2": {"stimulus": 6, "trial": 2, "rt": 839, "response": "Alpha"}, "5": {"stimulus": 73, "trial": 5, "rt": 1081, "response": "Beta"}, "4": {"stimulus": 8, "trial": 4, "rt": 1118, "response": "Alpha"}, "7": {"stimulus": 43, "trial": 7, "rt": 595, "response": "Alpha"}, "6": {"stimulus": 29, "trial": 6, "rt": 749, "response": "Alpha"}, "9": {"stimulus": 45, "trial": 9, "rt": 546, "response": "Alpha"}, "8": {"stimulus": 67, "trial": 8, "rt": 854, "response": "Alpha"}, "78": {"stimulus": 21, "trial": 78, "rt": 531, "response": "Alpha"}, "51": {"stimulus": 77, "trial": 51, "rt": 963, "response": "Beta"}, "39": {"stimulus": 15, "trial": 39, "rt": 365, "response": "Alpha"}, "65": {"stimulus": 63, "trial": 65, "rt": 1027, "response": "Beta"}, "76": {"stimulus": 26, "trial": 76, "rt": 471, "response": "Alpha"}, "75": {"stimulus": 1, "trial": 75, "rt": 396, "response": "Alpha"}, "38": {"stimulus": 78, "trial": 38, "rt": 1009, "response": "Beta"}, "73": {"stimulus": 68, "trial": 73, "rt": 1363, "response": "Beta"}, "72": {"stimulus": 65, "trial": 72, "rt": 993, "response": "Beta"}, "71": {"stimulus": 5, "trial": 71, "rt": 440, "response": "Alpha"}, "70": {"stimulus": 19, "trial": 70, "rt": 900, "response": "Alpha"}, "59": {"stimulus": 79, "trial": 59, "rt": 1118, "response": "Beta"}, "79": {"stimulus": 3, "trial": 79, "rt": 471, "response": "Alpha"}, "58": {"stimulus": 39, "trial": 58, "rt": 490, "response": "Alpha"}, "11": {"stimulus": 52, "trial": 11, "rt": 1093, "response": "Alpha"}, "10": {"stimulus": 64, "trial": 10, "rt": 1209, "response": "Beta"}, "13": {"stimulus": 60, "trial": 13, "rt": 647, "response": "Alpha"}, "12": {"stimulus": 74, "trial": 12, "rt": 2045, "response": "Beta"}, "15": {"stimulus": 10, "trial": 15, "rt": 502, "response": "Alpha"}, "14": {"stimulus": 4, "trial": 14, "rt": 487, "response": "Alpha"}, "17": {"stimulus": 46, "trial": 17, "rt": 531, "response": "Alpha"}, "16": {"stimulus": 48, "trial": 16, "rt": 546, "response": "Alpha"}, "19": {"stimulus": 53, "trial": 19, "rt": 486, "response": "Alpha"}, "18": {"stimulus": 56, "trial": 18, "rt": 454, "response": "Alpha"}, "31": {"stimulus": 20, "trial": 31, "rt": 369, "response": "Alpha"}, "30": {"stimulus": 72, "trial": 30, "rt": 961, "response": "Beta"}, "37": {"stimulus": 55, "trial": 37, "rt": 322, "response": "Alpha"}, "36": {"stimulus": 69, "trial": 36, "rt": 1416, "response": "Beta"}, "35": {"stimulus": 47, "trial": 35, "rt": 454, "response": "Alpha"}, "34": {"stimulus": 49, "trial": 34, "rt": 394, "response": "Alpha"}, "33": {"stimulus": 44, "trial": 33, "rt": 363, "response": "Alpha"}, "55": {"stimulus": 50, "trial": 55, "rt": 486, "response": "Alpha"}, "74": {"stimulus": 0, "trial": 74, "rt": 470, "response": "Alpha"}, "32": {"stimulus": 41, "trial": 32, "rt": 366, "response": "Alpha"}, "57": {"stimulus": 58, "trial": 57, "rt": 826, "response": "Alpha"}, "50": {"stimulus": 54, "trial": 50, "rt": 807, "response": "Alpha"}}}7, "response": "Alpha"}}}