{"generation": {"1": {"stimulus": 59, "trial": 1, "rt": 8675}, "0": {"stimulus": 72, "trial": 0, "rt": 16630}, "3": {"stimulus": 6, "trial": 3, "rt": 3889}, "2": {"stimulus": 23, "trial": 2, "rt": 2137}}, "info": {"participant": 248, "exposed": true, "lab": false, "start": 1488823653704, "counterbalance": 7, "condition": "XOR", "browser": {"platform": "Win32", "userAgent": "Mozilla/5.0 (Windows NT 6.1; Win64; x64) AppleWebKit/537.36 (KHTML, like Gecko) Chrome/56.0.2924.87 Safari/537.36"}}, "experiment": {"Paradigm": "TACL", "Stimuli": "Size-Color Squares", "Experiment": "Generating-Categories"}, "observation": {"11": {"stimulus": 0, "trial": 11, "rt": 890}, "10": {"stimulus": 70, "trial": 10, "rt": 891}, "1": {"stimulus": 0, "trial": 1, "rt": 1662}, "0": {"stimulus": 80, "trial": 0, "rt": 2315}, "3": {"stimulus": 70, "trial": 3, "rt": 1481}, "2": {"stimulus": 10, "trial": 2, "rt": 1464}, "5": {"stimulus": 10, "trial": 5, "rt": 927}, "4": {"stimulus": 0, "trial": 4, "rt": 1202}, "7": {"stimulus": 80, "trial": 7, "rt": 1100}, "6": {"stimulus": 70, "trial": 6, "rt": 975}, "9": {"stimulus": 10, "trial": 9, "rt": 905}, "8": {"stimulus": 80, "trial": 8, "rt": 912}}, "generalization": {"56": {"stimulus": 29, "trial": 56, "rt": 733, "response": "Beta"}, "77": {"stimulus": 7, "trial": 77, "rt": 490, "response": "Alpha"}, "54": {"stimulus": 40, "trial": 54, "rt": 671, "response": "Beta"}, "42": {"stimulus": 59, "trial": 42, "rt": 812, "response": "Beta"}, "48": {"stimulus": 47, "trial": 48, "rt": 585, "response": "Alpha"}, "43": {"stimulus": 44, "trial": 43, "rt": 554, "response": "Alpha"}, "60": {"stimulus": 61, "trial": 60, "rt": 717, "response": "Alpha"}, "61": {"stimulus": 2, "trial": 61, "rt": 803, "response": "Beta"}, "62": {"stimulus": 75, "trial": 62, "rt": 1133, "response": "Beta"}, "63": {"stimulus": 10, "trial": 63, "rt": 777, "response": "Beta"}, "64": {"stimulus": 20, "trial": 64, "rt": 789, "response": "Beta"}, "49": {"stimulus": 79, "trial": 49, "rt": 555, "response": "Alpha"}, "66": {"stimulus": 58, "trial": 66, "rt": 801, "response": "Beta"}, "67": {"stimulus": 23, "trial": 67, "rt": 780, "response": "Beta"}, "68": {"stimulus": 36, "trial": 68, "rt": 771, "response": "Alpha"}, "69": {"stimulus": 60, "trial": 69, "rt": 1256, "response": "Alpha"}, "80": {"stimulus": 28, "trial": 80, "rt": 1375, "response": "Alpha"}, "52": {"stimulus": 22, "trial": 52, "rt": 819, "response": "Beta"}, "53": {"stimulus": 68, "trial": 53, "rt": 981, "response": "Beta"}, "24": {"stimulus": 42, "trial": 24, "rt": 856, "response": "Beta"}, "25": {"stimulus": 64, "trial": 25, "rt": 719, "response": "Alpha"}, "26": {"stimulus": 11, "trial": 26, "rt": 1185, "response": "Beta"}, "27": {"stimulus": 53, "trial": 27, "rt": 634, "response": "Alpha"}, "20": {"stimulus": 72, "trial": 20, "rt": 711, "response": "Alpha"}, "21": {"stimulus": 24, "trial": 21, "rt": 1069, "response": "Beta"}, "22": {"stimulus": 37, "trial": 22, "rt": 742, "response": "Alpha"}, "23": {"stimulus": 15, "trial": 23, "rt": 1125, "response": "Beta"}, "46": {"stimulus": 21, "trial": 46, "rt": 843, "response": "Beta"}, "47": {"stimulus": 73, "trial": 47, "rt": 621, "response": "Alpha"}, "44": {"stimulus": 12, "trial": 44, "rt": 742, "response": "Beta"}, "45": {"stimulus": 71, "trial": 45, "rt": 1115, "response": "Alpha"}, "28": {"stimulus": 74, "trial": 28, "rt": 1131, "response": "Beta"}, "29": {"stimulus": 17, "trial": 29, "rt": 599, "response": "Alpha"}, "40": {"stimulus": 33, "trial": 40, "rt": 1194, "response": "Beta"}, "41": {"stimulus": 16, "trial": 41, "rt": 803, "response": "Alpha"}, "1": {"stimulus": 54, "trial": 1, "rt": 828, "response": "Alpha"}, "0": {"stimulus": 39, "trial": 0, "rt": 1866, "response": "Alpha"}, "3": {"stimulus": 63, "trial": 3, "rt": 961, "response": "Alpha"}, "2": {"stimulus": 26, "trial": 2, "rt": 826, "response": "Alpha"}, "5": {"stimulus": 31, "trial": 5, "rt": 937, "response": "Beta"}, "4": {"stimulus": 14, "trial": 4, "rt": 934, "response": "Beta"}, "7": {"stimulus": 76, "trial": 7, "rt": 1197, "response": "Beta"}, "6": {"stimulus": 45, "trial": 6, "rt": 941, "response": "Alpha"}, "9": {"stimulus": 48, "trial": 9, "rt": 1921, "response": "Beta"}, "8": {"stimulus": 52, "trial": 8, "rt": 773, "response": "Alpha"}, "78": {"stimulus": 30, "trial": 78, "rt": 999, "response": "Beta"}, "51": {"stimulus": 70, "trial": 51, "rt": 915, "response": "Alpha"}, "39": {"stimulus": 13, "trial": 39, "rt": 1030, "response": "Beta"}, "65": {"stimulus": 8, "trial": 65, "rt": 1422, "response": "Alpha"}, "76": {"stimulus": 9, "trial": 76, "rt": 733, "response": "Alpha"}, "75": {"stimulus": 5, "trial": 75, "rt": 905, "response": "Beta"}, "38": {"stimulus": 41, "trial": 38, "rt": 1030, "response": "Alpha"}, "73": {"stimulus": 49, "trial": 73, "rt": 999, "response": "Beta"}, "72": {"stimulus": 6, "trial": 72, "rt": 1238, "response": "Alpha"}, "71": {"stimulus": 51, "trial": 71, "rt": 466, "response": "Alpha"}, "70": {"stimulus": 34, "trial": 70, "rt": 822, "response": "Alpha"}, "59": {"stimulus": 25, "trial": 59, "rt": 1476, "response": "Alpha"}, "79": {"stimulus": 32, "trial": 79, "rt": 748, "response": "Beta"}, "58": {"stimulus": 80, "trial": 58, "rt": 612, "response": "Alpha"}, "11": {"stimulus": 50, "trial": 11, "rt": 1647, "response": "Beta"}, "10": {"stimulus": 19, "trial": 10, "rt": 1030, "response": "Alpha"}, "13": {"stimulus": 78, "trial": 13, "rt": 890, "response": "Beta"}, "12": {"stimulus": 18, "trial": 12, "rt": 701, "response": "Alpha"}, "15": {"stimulus": 57, "trial": 15, "rt": 1286, "response": "Beta"}, "14": {"stimulus": 43, "trial": 14, "rt": 522, "response": "Alpha"}, "17": {"stimulus": 69, "trial": 17, "rt": 1024, "response": "Beta"}, "16": {"stimulus": 3, "trial": 16, "rt": 1092, "response": "Beta"}, "19": {"stimulus": 27, "trial": 19, "rt": 693, "response": "Alpha"}, "18": {"stimulus": 65, "trial": 18, "rt": 873, "response": "Beta"}, "31": {"stimulus": 67, "trial": 31, "rt": 764, "response": "Beta"}, "30": {"stimulus": 4, "trial": 30, "rt": 756, "response": "Beta"}, "37": {"stimulus": 56, "trial": 37, "rt": 953, "response": "Beta"}, "36": {"stimulus": 55, "trial": 36, "rt": 2155, "response": "Beta"}, "35": {"stimulus": 77, "trial": 35, "rt": 1442, "response": "Beta"}, "34": {"stimulus": 35, "trial": 34, "rt": 869, "response": "Alpha"}, "33": {"stimulus": 46, "trial": 33, "rt": 2115, "response": "Beta"}, "55": {"stimulus": 62, "trial": 55, "rt": 756, "response": "Alpha"}, "74": {"stimulus": 0, "trial": 74, "rt": 724, "response": "Alpha"}, "32": {"stimulus": 38, "trial": 32, "rt": 1998, "response": "Beta"}, "57": {"stimulus": 66, "trial": 57, "rt": 859, "response": "Beta"}, "50": {"stimulus": 1, "trial": 50, "rt": 737, "response": "Alpha"}}}7, "response": "Alpha"}}}