{"generation": {"1": {"stimulus": 77, "trial": 1, "rt": 5969}, "0": {"stimulus": 80, "trial": 0, "rt": 14981}, "3": {"stimulus": 72, "trial": 3, "rt": 5786}, "2": {"stimulus": 76, "trial": 2, "rt": 7698}}, "info": {"finish": 1488822127777, "participant": 25, "exposed": true, "lab": false, "start": 1488821829755, "counterbalance": 4, "condition": "Row", "browser": {"platform": "Win32", "userAgent": "Mozilla/5.0 (Windows NT 10.0; WOW64) AppleWebKit/537.36 (KHTML, like Gecko) Chrome/56.0.2924.87 Safari/537.36"}}, "experiment": {"Paradigm": "TACL", "Stimuli": "Size-Color Squares", "Experiment": "Generating-Categories"}, "observation": {"11": {"stimulus": 16, "trial": 11, "rt": 1320}, "10": {"stimulus": 12, "trial": 10, "rt": 1020}, "1": {"stimulus": 10, "trial": 1, "rt": 7334}, "0": {"stimulus": 14, "trial": 0, "rt": 16127}, "3": {"stimulus": 12, "trial": 3, "rt": 13035}, "2": {"stimulus": 16, "trial": 2, "rt": 14799}, "5": {"stimulus": 16, "trial": 5, "rt": 6619}, "4": {"stimulus": 14, "trial": 4, "rt": 7287}, "7": {"stimulus": 12, "trial": 7, "rt": 2941}, "6": {"stimulus": 10, "trial": 6, "rt": 4671}, "9": {"stimulus": 14, "trial": 9, "rt": 978}, "8": {"stimulus": 10, "trial": 8, "rt": 946}}, "generalization": {"56": {"stimulus": 28, "trial": 56, "rt": 1673, "response": "Alpha"}, "77": {"stimulus": 17, "trial": 77, "rt": 2248, "response": "Alpha"}, "54": {"stimulus": 30, "trial": 54, "rt": 1195, "response": "Alpha"}, "42": {"stimulus": 65, "trial": 42, "rt": 692, "response": "Alpha"}, "48": {"stimulus": 52, "trial": 48, "rt": 864, "response": "Alpha"}, "43": {"stimulus": 44, "trial": 43, "rt": 2269, "response": "Alpha"}, "60": {"stimulus": 31, "trial": 60, "rt": 940, "response": "Alpha"}, "61": {"stimulus": 0, "trial": 61, "rt": 988, "response": "Beta"}, "62": {"stimulus": 25, "trial": 62, "rt": 637, "response": "Beta"}, "63": {"stimulus": 78, "trial": 63, "rt": 1125, "response": "Alpha"}, "64": {"stimulus": 48, "trial": 64, "rt": 957, "response": "Alpha"}, "49": {"stimulus": 79, "trial": 49, "rt": 869, "response": "Alpha"}, "66": {"stimulus": 12, "trial": 66, "rt": 1035, "response": "Beta"}, "67": {"stimulus": 72, "trial": 67, "rt": 925, "response": "Alpha"}, "68": {"stimulus": 1, "trial": 68, "rt": 1350, "response": "Beta"}, "69": {"stimulus": 59, "trial": 69, "rt": 754, "response": "Alpha"}, "80": {"stimulus": 67, "trial": 80, "rt": 631, "response": "Alpha"}, "52": {"stimulus": 62, "trial": 52, "rt": 955, "response": "Alpha"}, "53": {"stimulus": 61, "trial": 53, "rt": 662, "response": "Alpha"}, "24": {"stimulus": 29, "trial": 24, "rt": 760, "response": "Alpha"}, "25": {"stimulus": 51, "trial": 25, "rt": 667, "response": "Alpha"}, "26": {"stimulus": 55, "trial": 26, "rt": 629, "response": "Alpha"}, "27": {"stimulus": 20, "trial": 27, "rt": 1391, "response": "Beta"}, "20": {"stimulus": 76, "trial": 20, "rt": 1297, "response": "Alpha"}, "21": {"stimulus": 15, "trial": 21, "rt": 1876, "response": "Beta"}, "22": {"stimulus": 39, "trial": 22, "rt": 2419, "response": "Alpha"}, "23": {"stimulus": 18, "trial": 23, "rt": 1126, "response": "Alpha"}, "46": {"stimulus": 7, "trial": 46, "rt": 971, "response": "Beta"}, "47": {"stimulus": 27, "trial": 47, "rt": 1182, "response": "Alpha"}, "44": {"stimulus": 41, "trial": 44, "rt": 972, "response": "Alpha"}, "45": {"stimulus": 58, "trial": 45, "rt": 605, "response": "Alpha"}, "28": {"stimulus": 22, "trial": 28, "rt": 971, "response": "Beta"}, "29": {"stimulus": 2, "trial": 29, "rt": 939, "response": "Beta"}, "40": {"stimulus": 8, "trial": 40, "rt": 965, "response": "Beta"}, "41": {"stimulus": 40, "trial": 41, "rt": 877, "response": "Alpha"}, "1": {"stimulus": 9, "trial": 1, "rt": 2060, "response": "Beta"}, "0": {"stimulus": 54, "trial": 0, "rt": 3597, "response": "Alpha"}, "3": {"stimulus": 19, "trial": 3, "rt": 2139, "response": "Alpha"}, "2": {"stimulus": 5, "trial": 2, "rt": 931, "response": "Beta"}, "5": {"stimulus": 69, "trial": 5, "rt": 853, "response": "Alpha"}, "4": {"stimulus": 47, "trial": 4, "rt": 879, "response": "Alpha"}, "7": {"stimulus": 75, "trial": 7, "rt": 1619, "response": "Alpha"}, "6": {"stimulus": 11, "trial": 6, "rt": 1243, "response": "Beta"}, "9": {"stimulus": 33, "trial": 9, "rt": 1149, "response": "Alpha"}, "8": {"stimulus": 24, "trial": 8, "rt": 1407, "response": "Beta"}, "78": {"stimulus": 16, "trial": 78, "rt": 785, "response": "Alpha"}, "51": {"stimulus": 34, "trial": 51, "rt": 824, "response": "Alpha"}, "39": {"stimulus": 42, "trial": 39, "rt": 900, "response": "Alpha"}, "65": {"stimulus": 70, "trial": 65, "rt": 658, "response": "Alpha"}, "76": {"stimulus": 73, "trial": 76, "rt": 614, "response": "Alpha"}, "75": {"stimulus": 26, "trial": 75, "rt": 2192, "response": "Beta"}, "38": {"stimulus": 13, "trial": 38, "rt": 1361, "response": "Beta"}, "73": {"stimulus": 80, "trial": 73, "rt": 611, "response": "Alpha"}, "72": {"stimulus": 66, "trial": 72, "rt": 654, "response": "Alpha"}, "71": {"stimulus": 68, "trial": 71, "rt": 583, "response": "Alpha"}, "70": {"stimulus": 57, "trial": 70, "rt": 613, "response": "Alpha"}, "59": {"stimulus": 64, "trial": 59, "rt": 636, "response": "Alpha"}, "79": {"stimulus": 45, "trial": 79, "rt": 861, "response": "Alpha"}, "58": {"stimulus": 50, "trial": 58, "rt": 551, "response": "Alpha"}, "11": {"stimulus": 56, "trial": 11, "rt": 985, "response": "Alpha"}, "10": {"stimulus": 77, "trial": 10, "rt": 685, "response": "Alpha"}, "13": {"stimulus": 63, "trial": 13, "rt": 987, "response": "Alpha"}, "12": {"stimulus": 36, "trial": 12, "rt": 1937, "response": "Beta"}, "15": {"stimulus": 10, "trial": 15, "rt": 1047, "response": "Beta"}, "14": {"stimulus": 71, "trial": 14, "rt": 1283, "response": "Alpha"}, "17": {"stimulus": 49, "trial": 17, "rt": 1011, "response": "Alpha"}, "16": {"stimulus": 4, "trial": 16, "rt": 1501, "response": "Beta"}, "19": {"stimulus": 37, "trial": 19, "rt": 1093, "response": "Alpha"}, "18": {"stimulus": 35, "trial": 18, "rt": 1245, "response": "Alpha"}, "31": {"stimulus": 74, "trial": 31, "rt": 613, "response": "Alpha"}, "30": {"stimulus": 32, "trial": 30, "rt": 2466, "response": "Alpha"}, "37": {"stimulus": 43, "trial": 37, "rt": 596, "response": "Alpha"}, "36": {"stimulus": 46, "trial": 36, "rt": 635, "response": "Alpha"}, "35": {"stimulus": 53, "trial": 35, "rt": 1044, "response": "Alpha"}, "34": {"stimulus": 6, "trial": 34, "rt": 650, "response": "Beta"}, "33": {"stimulus": 60, "trial": 33, "rt": 995, "response": "Alpha"}, "55": {"stimulus": 23, "trial": 55, "rt": 1173, "response": "Beta"}, "74": {"stimulus": 3, "trial": 74, "rt": 1579, "response": "Beta"}, "32": {"stimulus": 21, "trial": 32, "rt": 1000, "response": "Beta"}, "57": {"stimulus": 38, "trial": 57, "rt": 922, "response": "Alpha"}, "50": {"stimulus": 14, "trial": 50, "rt": 1453, "response": "Beta"}}}