{"generation": {"1": {"stimulus": 35, "trial": 1, "rt": 7334}, "0": {"stimulus": 8, "trial": 0, "rt": 31675}, "3": {"stimulus": 80, "trial": 3, "rt": 4727}, "2": {"stimulus": 53, "trial": 2, "rt": 8006}}, "info": {"finish": 1488824738497, "participant": 250, "exposed": true, "lab": false, "start": 1488824488277, "counterbalance": 1, "condition": "XOR", "browser": {"platform": "Win32", "userAgent": "Mozilla/5.0 (Windows NT 10.0; WOW64; rv:51.0) Gecko/20100101 Firefox/51.0"}}, "experiment": {"Paradigm": "TACL", "Stimuli": "Size-Color Squares", "Experiment": "Generating-Categories"}, "observation": {"11": {"stimulus": 80, "trial": 11, "rt": 3805}, "10": {"stimulus": 70, "trial": 10, "rt": 824}, "1": {"stimulus": 70, "trial": 1, "rt": 2664}, "0": {"stimulus": 80, "trial": 0, "rt": 3447}, "3": {"stimulus": 10, "trial": 3, "rt": 2301}, "2": {"stimulus": 0, "trial": 2, "rt": 2973}, "5": {"stimulus": 80, "trial": 5, "rt": 1509}, "4": {"stimulus": 0, "trial": 4, "rt": 2152}, "7": {"stimulus": 10, "trial": 7, "rt": 1222}, "6": {"stimulus": 70, "trial": 6, "rt": 1146}, "9": {"stimulus": 10, "trial": 9, "rt": 1045}, "8": {"stimulus": 0, "trial": 8, "rt": 1078}}, "generalization": {"56": {"stimulus": 66, "trial": 56, "rt": 639, "response": "Alpha"}, "77": {"stimulus": 11, "trial": 77, "rt": 989, "response": "Alpha"}, "54": {"stimulus": 28, "trial": 54, "rt": 635, "response": "Alpha"}, "42": {"stimulus": 33, "trial": 42, "rt": 599, "response": "Alpha"}, "48": {"stimulus": 47, "trial": 48, "rt": 1075, "response": "Alpha"}, "43": {"stimulus": 22, "trial": 43, "rt": 539, "response": "Alpha"}, "60": {"stimulus": 36, "trial": 60, "rt": 507, "response": "Alpha"}, "61": {"stimulus": 72, "trial": 61, "rt": 498, "response": "Alpha"}, "62": {"stimulus": 3, "trial": 62, "rt": 706, "response": "Alpha"}, "63": {"stimulus": 27, "trial": 63, "rt": 462, "response": "Alpha"}, "64": {"stimulus": 14, "trial": 64, "rt": 851, "response": "Alpha"}, "49": {"stimulus": 44, "trial": 49, "rt": 1369, "response": "Beta"}, "66": {"stimulus": 7, "trial": 66, "rt": 1356, "response": "Beta"}, "67": {"stimulus": 78, "trial": 67, "rt": 1301, "response": "Alpha"}, "68": {"stimulus": 13, "trial": 68, "rt": 930, "response": "Alpha"}, "69": {"stimulus": 74, "trial": 69, "rt": 670, "response": "Alpha"}, "80": {"stimulus": 56, "trial": 80, "rt": 586, "response": "Alpha"}, "52": {"stimulus": 0, "trial": 52, "rt": 889, "response": "Alpha"}, "53": {"stimulus": 30, "trial": 53, "rt": 625, "response": "Alpha"}, "24": {"stimulus": 80, "trial": 24, "rt": 1686, "response": "Beta"}, "25": {"stimulus": 20, "trial": 25, "rt": 1086, "response": "Alpha"}, "26": {"stimulus": 31, "trial": 26, "rt": 1068, "response": "Alpha"}, "27": {"stimulus": 60, "trial": 27, "rt": 1044, "response": "Alpha"}, "20": {"stimulus": 42, "trial": 20, "rt": 1165, "response": "Alpha"}, "21": {"stimulus": 41, "trial": 21, "rt": 740, "response": "Alpha"}, "22": {"stimulus": 18, "trial": 22, "rt": 725, "response": "Alpha"}, "23": {"stimulus": 37, "trial": 23, "rt": 530, "response": "Alpha"}, "46": {"stimulus": 71, "trial": 46, "rt": 992, "response": "Beta"}, "47": {"stimulus": 61, "trial": 47, "rt": 944, "response": "Beta"}, "44": {"stimulus": 25, "trial": 44, "rt": 1322, "response": "Beta"}, "45": {"stimulus": 50, "trial": 45, "rt": 1412, "response": "Alpha"}, "28": {"stimulus": 23, "trial": 28, "rt": 1068, "response": "Alpha"}, "29": {"stimulus": 67, "trial": 29, "rt": 601, "response": "Alpha"}, "40": {"stimulus": 51, "trial": 40, "rt": 1413, "response": "Alpha"}, "41": {"stimulus": 10, "trial": 41, "rt": 555, "response": "Alpha"}, "1": {"stimulus": 32, "trial": 1, "rt": 1229, "response": "Beta"}, "0": {"stimulus": 57, "trial": 0, "rt": 3175, "response": "Alpha"}, "3": {"stimulus": 1, "trial": 3, "rt": 1188, "response": "Alpha"}, "2": {"stimulus": 34, "trial": 2, "rt": 1113, "response": "Beta"}, "5": {"stimulus": 29, "trial": 5, "rt": 886, "response": "Alpha"}, "4": {"stimulus": 15, "trial": 4, "rt": 2418, "response": "Alpha"}, "7": {"stimulus": 12, "trial": 7, "rt": 829, "response": "Alpha"}, "6": {"stimulus": 68, "trial": 6, "rt": 1068, "response": "Alpha"}, "9": {"stimulus": 5, "trial": 9, "rt": 1221, "response": "Beta"}, "8": {"stimulus": 2, "trial": 8, "rt": 930, "response": "Alpha"}, "78": {"stimulus": 48, "trial": 78, "rt": 730, "response": "Alpha"}, "51": {"stimulus": 70, "trial": 51, "rt": 2343, "response": "Alpha"}, "39": {"stimulus": 19, "trial": 39, "rt": 678, "response": "Alpha"}, "65": {"stimulus": 69, "trial": 65, "rt": 918, "response": "Alpha"}, "76": {"stimulus": 53, "trial": 76, "rt": 644, "response": "Beta"}, "75": {"stimulus": 26, "trial": 75, "rt": 1307, "response": "Beta"}, "38": {"stimulus": 49, "trial": 38, "rt": 1086, "response": "Alpha"}, "73": {"stimulus": 77, "trial": 73, "rt": 679, "response": "Alpha"}, "72": {"stimulus": 76, "trial": 72, "rt": 688, "response": "Alpha"}, "71": {"stimulus": 40, "trial": 71, "rt": 1039, "response": "Alpha"}, "70": {"stimulus": 62, "trial": 70, "rt": 1324, "response": "Beta"}, "59": {"stimulus": 46, "trial": 59, "rt": 501, "response": "Alpha"}, "79": {"stimulus": 59, "trial": 79, "rt": 926, "response": "Alpha"}, "58": {"stimulus": 75, "trial": 58, "rt": 547, "response": "Alpha"}, "11": {"stimulus": 24, "trial": 11, "rt": 2174, "response": "Alpha"}, "10": {"stimulus": 79, "trial": 10, "rt": 994, "response": "Beta"}, "13": {"stimulus": 54, "trial": 13, "rt": 1019, "response": "Alpha"}, "12": {"stimulus": 8, "trial": 12, "rt": 1078, "response": "Beta"}, "15": {"stimulus": 73, "trial": 15, "rt": 687, "response": "Alpha"}, "14": {"stimulus": 38, "trial": 14, "rt": 792, "response": "Alpha"}, "17": {"stimulus": 64, "trial": 17, "rt": 599, "response": "Alpha"}, "16": {"stimulus": 58, "trial": 16, "rt": 802, "response": "Alpha"}, "19": {"stimulus": 9, "trial": 19, "rt": 633, "response": "Alpha"}, "18": {"stimulus": 45, "trial": 18, "rt": 609, "response": "Alpha"}, "31": {"stimulus": 39, "trial": 31, "rt": 719, "response": "Alpha"}, "30": {"stimulus": 21, "trial": 30, "rt": 536, "response": "Alpha"}, "37": {"stimulus": 52, "trial": 37, "rt": 979, "response": "Beta"}, "36": {"stimulus": 16, "trial": 36, "rt": 2546, "response": "Beta"}, "35": {"stimulus": 6, "trial": 35, "rt": 491, "response": "Alpha"}, "34": {"stimulus": 43, "trial": 34, "rt": 1330, "response": "Beta"}, "33": {"stimulus": 65, "trial": 33, "rt": 546, "response": "Alpha"}, "55": {"stimulus": 63, "trial": 55, "rt": 549, "response": "Alpha"}, "74": {"stimulus": 55, "trial": 74, "rt": 559, "response": "Alpha"}, "32": {"stimulus": 4, "trial": 32, "rt": 738, "response": "Alpha"}, "57": {"stimulus": 17, "trial": 57, "rt": 622, "response": "Alpha"}, "50": {"stimulus": 35, "trial": 50, "rt": 1296, "response": "Beta"}}}