{"generation": {"1": {"stimulus": 8, "trial": 1, "rt": 6050}, "0": {"stimulus": 16, "trial": 0, "rt": 16601}, "3": {"stimulus": 47, "trial": 3, "rt": 3853}, "2": {"stimulus": 45, "trial": 2, "rt": 5561}}, "info": {"finish": 1488825302801, "participant": 251, "exposed": true, "lab": false, "start": 1488825056392, "counterbalance": 2, "condition": "XOR", "browser": {"platform": "Win32", "userAgent": "Mozilla/5.0 (Windows NT 6.1; WOW64) AppleWebKit/537.36 (KHTML, like Gecko) Chrome/56.0.2924.87 Safari/537.36"}}, "experiment": {"Paradigm": "TACL", "Stimuli": "Size-Color Squares", "Experiment": "Generating-Categories"}, "observation": {"11": {"stimulus": 10, "trial": 11, "rt": 1597}, "10": {"stimulus": 0, "trial": 10, "rt": 1467}, "1": {"stimulus": 10, "trial": 1, "rt": 1305}, "0": {"stimulus": 0, "trial": 0, "rt": 7223}, "3": {"stimulus": 80, "trial": 3, "rt": 1008}, "2": {"stimulus": 70, "trial": 2, "rt": 1199}, "5": {"stimulus": 10, "trial": 5, "rt": 2766}, "4": {"stimulus": 0, "trial": 4, "rt": 791}, "7": {"stimulus": 70, "trial": 7, "rt": 1080}, "6": {"stimulus": 80, "trial": 6, "rt": 1249}, "9": {"stimulus": 70, "trial": 9, "rt": 1186}, "8": {"stimulus": 80, "trial": 8, "rt": 1171}}, "generalization": {"56": {"stimulus": 69, "trial": 56, "rt": 882, "response": "Beta"}, "77": {"stimulus": 48, "trial": 77, "rt": 725, "response": "Beta"}, "54": {"stimulus": 26, "trial": 54, "rt": 514, "response": "Beta"}, "42": {"stimulus": 63, "trial": 42, "rt": 469, "response": "Beta"}, "48": {"stimulus": 47, "trial": 48, "rt": 445, "response": "Beta"}, "43": {"stimulus": 80, "trial": 43, "rt": 491, "response": "Beta"}, "60": {"stimulus": 33, "trial": 60, "rt": 1068, "response": "Alpha"}, "61": {"stimulus": 35, "trial": 61, "rt": 920, "response": "Beta"}, "62": {"stimulus": 18, "trial": 62, "rt": 1004, "response": "Alpha"}, "63": {"stimulus": 9, "trial": 63, "rt": 471, "response": "Alpha"}, "64": {"stimulus": 68, "trial": 64, "rt": 988, "response": "Beta"}, "49": {"stimulus": 66, "trial": 49, "rt": 492, "response": "Beta"}, "66": {"stimulus": 14, "trial": 66, "rt": 1198, "response": "Alpha"}, "67": {"stimulus": 73, "trial": 67, "rt": 858, "response": "Beta"}, "68": {"stimulus": 28, "trial": 68, "rt": 1185, "response": "Beta"}, "69": {"stimulus": 55, "trial": 69, "rt": 545, "response": "Beta"}, "80": {"stimulus": 30, "trial": 80, "rt": 2172, "response": "Beta"}, "52": {"stimulus": 5, "trial": 52, "rt": 482, "response": "Alpha"}, "53": {"stimulus": 46, "trial": 53, "rt": 439, "response": "Alpha"}, "24": {"stimulus": 53, "trial": 24, "rt": 470, "response": "Alpha"}, "25": {"stimulus": 13, "trial": 25, "rt": 575, "response": "Alpha"}, "26": {"stimulus": 49, "trial": 26, "rt": 1045, "response": "Beta"}, "27": {"stimulus": 43, "trial": 27, "rt": 1099, "response": "Beta"}, "20": {"stimulus": 75, "trial": 20, "rt": 1181, "response": "Beta"}, "21": {"stimulus": 60, "trial": 21, "rt": 443, "response": "Alpha"}, "22": {"stimulus": 21, "trial": 22, "rt": 803, "response": "Alpha"}, "23": {"stimulus": 31, "trial": 23, "rt": 753, "response": "Beta"}, "46": {"stimulus": 59, "trial": 46, "rt": 884, "response": "Beta"}, "47": {"stimulus": 39, "trial": 47, "rt": 653, "response": "Beta"}, "44": {"stimulus": 64, "trial": 44, "rt": 433, "response": "Beta"}, "45": {"stimulus": 4, "trial": 45, "rt": 901, "response": "Alpha"}, "28": {"stimulus": 32, "trial": 28, "rt": 992, "response": "Beta"}, "29": {"stimulus": 25, "trial": 29, "rt": 573, "response": "Alpha"}, "40": {"stimulus": 50, "trial": 40, "rt": 488, "response": "Beta"}, "41": {"stimulus": 71, "trial": 41, "rt": 466, "response": "Beta"}, "1": {"stimulus": 58, "trial": 1, "rt": 1221, "response": "Beta"}, "0": {"stimulus": 74, "trial": 0, "rt": 3554, "response": "Beta"}, "3": {"stimulus": 61, "trial": 3, "rt": 1646, "response": "Alpha"}, "2": {"stimulus": 0, "trial": 2, "rt": 954, "response": "Alpha"}, "5": {"stimulus": 11, "trial": 5, "rt": 1234, "response": "Alpha"}, "4": {"stimulus": 22, "trial": 4, "rt": 2684, "response": "Beta"}, "7": {"stimulus": 57, "trial": 7, "rt": 1790, "response": "Beta"}, "6": {"stimulus": 24, "trial": 6, "rt": 560, "response": "Alpha"}, "9": {"stimulus": 27, "trial": 9, "rt": 1217, "response": "Beta"}, "8": {"stimulus": 54, "trial": 8, "rt": 1065, "response": "Beta"}, "78": {"stimulus": 67, "trial": 78, "rt": 802, "response": "Beta"}, "51": {"stimulus": 19, "trial": 51, "rt": 1397, "response": "Alpha"}, "39": {"stimulus": 62, "trial": 39, "rt": 742, "response": "Beta"}, "65": {"stimulus": 45, "trial": 65, "rt": 598, "response": "Beta"}, "76": {"stimulus": 34, "trial": 76, "rt": 1043, "response": "Beta"}, "75": {"stimulus": 56, "trial": 75, "rt": 852, "response": "Beta"}, "38": {"stimulus": 37, "trial": 38, "rt": 653, "response": "Beta"}, "73": {"stimulus": 2, "trial": 73, "rt": 1403, "response": "Alpha"}, "72": {"stimulus": 29, "trial": 72, "rt": 1206, "response": "Beta"}, "71": {"stimulus": 78, "trial": 71, "rt": 770, "response": "Beta"}, "70": {"stimulus": 23, "trial": 70, "rt": 615, "response": "Beta"}, "59": {"stimulus": 79, "trial": 59, "rt": 444, "response": "Beta"}, "79": {"stimulus": 10, "trial": 79, "rt": 1223, "response": "Beta"}, "58": {"stimulus": 72, "trial": 58, "rt": 464, "response": "Beta"}, "11": {"stimulus": 38, "trial": 11, "rt": 1456, "response": "Beta"}, "10": {"stimulus": 44, "trial": 10, "rt": 999, "response": "Beta"}, "13": {"stimulus": 77, "trial": 13, "rt": 1639, "response": "Alpha"}, "12": {"stimulus": 52, "trial": 12, "rt": 1043, "response": "Alpha"}, "15": {"stimulus": 41, "trial": 15, "rt": 976, "response": "Beta"}, "14": {"stimulus": 1, "trial": 14, "rt": 1342, "response": "Alpha"}, "17": {"stimulus": 40, "trial": 17, "rt": 1001, "response": "Alpha"}, "16": {"stimulus": 65, "trial": 16, "rt": 1209, "response": "Alpha"}, "19": {"stimulus": 15, "trial": 19, "rt": 657, "response": "Alpha"}, "18": {"stimulus": 12, "trial": 18, "rt": 969, "response": "Beta"}, "31": {"stimulus": 36, "trial": 31, "rt": 1072, "response": "Beta"}, "30": {"stimulus": 17, "trial": 30, "rt": 498, "response": "Alpha"}, "37": {"stimulus": 42, "trial": 37, "rt": 1038, "response": "Beta"}, "36": {"stimulus": 6, "trial": 36, "rt": 852, "response": "Alpha"}, "35": {"stimulus": 76, "trial": 35, "rt": 924, "response": "Beta"}, "34": {"stimulus": 20, "trial": 34, "rt": 601, "response": "Alpha"}, "33": {"stimulus": 3, "trial": 33, "rt": 641, "response": "Alpha"}, "55": {"stimulus": 8, "trial": 55, "rt": 816, "response": "Alpha"}, "74": {"stimulus": 7, "trial": 74, "rt": 1018, "response": "Alpha"}, "32": {"stimulus": 16, "trial": 32, "rt": 693, "response": "Alpha"}, "57": {"stimulus": 70, "trial": 57, "rt": 479, "response": "Beta"}, "50": {"stimulus": 51, "trial": 50, "rt": 443, "response": "Beta"}}}