{"generation": {"1": {"stimulus": 74, "trial": 1, "rt": 5218}, "0": {"stimulus": 77, "trial": 0, "rt": 5715}, "3": {"stimulus": 73, "trial": 3, "rt": 6091}, "2": {"stimulus": 80, "trial": 2, "rt": 3300}}, "info": {"finish": 1488822240434, "participant": 26, "exposed": true, "lab": false, "start": 1488821857871, "counterbalance": 6, "condition": "Row", "browser": {"platform": "Win32", "userAgent": "Mozilla/5.0 (Windows NT 10.0; WOW64; rv:51.0) Gecko/20100101 Firefox/51.0"}}, "experiment": {"Paradigm": "TACL", "Stimuli": "Size-Color Squares", "Experiment": "Generating-Categories"}, "observation": {"11": {"stimulus": 12, "trial": 11, "rt": 1114}, "10": {"stimulus": 10, "trial": 10, "rt": 1115}, "1": {"stimulus": 10, "trial": 1, "rt": 2416}, "0": {"stimulus": 12, "trial": 0, "rt": 5804}, "3": {"stimulus": 14, "trial": 3, "rt": 1571}, "2": {"stimulus": 16, "trial": 2, "rt": 1940}, "5": {"stimulus": 10, "trial": 5, "rt": 1258}, "4": {"stimulus": 12, "trial": 4, "rt": 1475}, "7": {"stimulus": 14, "trial": 7, "rt": 1012}, "6": {"stimulus": 16, "trial": 6, "rt": 1147}, "9": {"stimulus": 14, "trial": 9, "rt": 1131}, "8": {"stimulus": 16, "trial": 8, "rt": 1075}}, "generalization": {"56": {"stimulus": 9, "trial": 56, "rt": 806, "response": "Alpha"}, "77": {"stimulus": 80, "trial": 77, "rt": 531, "response": "Beta"}, "54": {"stimulus": 12, "trial": 54, "rt": 658, "response": "Alpha"}, "42": {"stimulus": 22, "trial": 42, "rt": 1005, "response": "Alpha"}, "48": {"stimulus": 59, "trial": 48, "rt": 721, "response": "Beta"}, "43": {"stimulus": 10, "trial": 43, "rt": 692, "response": "Alpha"}, "60": {"stimulus": 31, "trial": 60, "rt": 915, "response": "Alpha"}, "61": {"stimulus": 44, "trial": 61, "rt": 739, "response": "Beta"}, "62": {"stimulus": 75, "trial": 62, "rt": 927, "response": "Beta"}, "63": {"stimulus": 51, "trial": 63, "rt": 1115, "response": "Beta"}, "64": {"stimulus": 30, "trial": 64, "rt": 691, "response": "Alpha"}, "49": {"stimulus": 0, "trial": 49, "rt": 778, "response": "Alpha"}, "66": {"stimulus": 18, "trial": 66, "rt": 786, "response": "Alpha"}, "67": {"stimulus": 50, "trial": 67, "rt": 604, "response": "Beta"}, "68": {"stimulus": 62, "trial": 68, "rt": 1155, "response": "Beta"}, "69": {"stimulus": 68, "trial": 69, "rt": 626, "response": "Beta"}, "80": {"stimulus": 69, "trial": 80, "rt": 5604, "response": "Beta"}, "52": {"stimulus": 63, "trial": 52, "rt": 1316, "response": "Beta"}, "53": {"stimulus": 20, "trial": 53, "rt": 898, "response": "Alpha"}, "24": {"stimulus": 7, "trial": 24, "rt": 833, "response": "Alpha"}, "25": {"stimulus": 43, "trial": 25, "rt": 746, "response": "Beta"}, "26": {"stimulus": 57, "trial": 26, "rt": 787, "response": "Beta"}, "27": {"stimulus": 26, "trial": 27, "rt": 738, "response": "Alpha"}, "20": {"stimulus": 72, "trial": 20, "rt": 687, "response": "Beta"}, "21": {"stimulus": 35, "trial": 21, "rt": 2746, "response": "Alpha"}, "22": {"stimulus": 67, "trial": 22, "rt": 858, "response": "Beta"}, "23": {"stimulus": 56, "trial": 23, "rt": 862, "response": "Beta"}, "46": {"stimulus": 55, "trial": 46, "rt": 956, "response": "Beta"}, "47": {"stimulus": 29, "trial": 47, "rt": 1490, "response": "Alpha"}, "44": {"stimulus": 32, "trial": 44, "rt": 1219, "response": "Alpha"}, "45": {"stimulus": 15, "trial": 45, "rt": 1043, "response": "Alpha"}, "28": {"stimulus": 65, "trial": 28, "rt": 715, "response": "Beta"}, "29": {"stimulus": 38, "trial": 29, "rt": 1958, "response": "Beta"}, "40": {"stimulus": 66, "trial": 40, "rt": 852, "response": "Beta"}, "41": {"stimulus": 78, "trial": 41, "rt": 594, "response": "Beta"}, "1": {"stimulus": 71, "trial": 1, "rt": 980, "response": "Beta"}, "0": {"stimulus": 37, "trial": 0, "rt": 2911, "response": "Alpha"}, "3": {"stimulus": 21, "trial": 3, "rt": 899, "response": "Alpha"}, "2": {"stimulus": 33, "trial": 2, "rt": 1507, "response": "Alpha"}, "5": {"stimulus": 46, "trial": 5, "rt": 3043, "response": "Beta"}, "4": {"stimulus": 1, "trial": 4, "rt": 899, "response": "Alpha"}, "7": {"stimulus": 45, "trial": 7, "rt": 1106, "response": "Beta"}, "6": {"stimulus": 25, "trial": 6, "rt": 987, "response": "Alpha"}, "9": {"stimulus": 47, "trial": 9, "rt": 1576, "response": "Beta"}, "8": {"stimulus": 52, "trial": 8, "rt": 932, "response": "Beta"}, "78": {"stimulus": 6, "trial": 78, "rt": 947, "response": "Alpha"}, "51": {"stimulus": 49, "trial": 51, "rt": 755, "response": "Beta"}, "39": {"stimulus": 41, "trial": 39, "rt": 927, "response": "Alpha"}, "65": {"stimulus": 58, "trial": 65, "rt": 857, "response": "Beta"}, "76": {"stimulus": 53, "trial": 76, "rt": 515, "response": "Beta"}, "75": {"stimulus": 64, "trial": 75, "rt": 482, "response": "Beta"}, "38": {"stimulus": 39, "trial": 38, "rt": 813, "response": "Alpha"}, "73": {"stimulus": 13, "trial": 73, "rt": 716, "response": "Alpha"}, "72": {"stimulus": 11, "trial": 72, "rt": 795, "response": "Alpha"}, "71": {"stimulus": 2, "trial": 71, "rt": 698, "response": "Alpha"}, "70": {"stimulus": 36, "trial": 70, "rt": 890, "response": "Beta"}, "59": {"stimulus": 40, "trial": 59, "rt": 1267, "response": "Alpha"}, "79": {"stimulus": 23, "trial": 79, "rt": 537, "response": "Alpha"}, "58": {"stimulus": 74, "trial": 58, "rt": 811, "response": "Beta"}, "11": {"stimulus": 27, "trial": 11, "rt": 1754, "response": "Alpha"}, "10": {"stimulus": 8, "trial": 10, "rt": 812, "response": "Alpha"}, "13": {"stimulus": 76, "trial": 13, "rt": 971, "response": "Beta"}, "12": {"stimulus": 61, "trial": 12, "rt": 798, "response": "Beta"}, "15": {"stimulus": 3, "trial": 15, "rt": 971, "response": "Alpha"}, "14": {"stimulus": 19, "trial": 14, "rt": 1228, "response": "Alpha"}, "17": {"stimulus": 73, "trial": 17, "rt": 955, "response": "Beta"}, "16": {"stimulus": 48, "trial": 16, "rt": 1023, "response": "Beta"}, "19": {"stimulus": 28, "trial": 19, "rt": 1864, "response": "Alpha"}, "18": {"stimulus": 5, "trial": 18, "rt": 803, "response": "Alpha"}, "31": {"stimulus": 24, "trial": 31, "rt": 644, "response": "Alpha"}, "30": {"stimulus": 17, "trial": 30, "rt": 1480, "response": "Alpha"}, "37": {"stimulus": 16, "trial": 37, "rt": 844, "response": "Alpha"}, "36": {"stimulus": 54, "trial": 36, "rt": 734, "response": "Beta"}, "35": {"stimulus": 79, "trial": 35, "rt": 587, "response": "Beta"}, "34": {"stimulus": 42, "trial": 34, "rt": 4043, "response": "Beta"}, "33": {"stimulus": 70, "trial": 33, "rt": 842, "response": "Beta"}, "55": {"stimulus": 14, "trial": 55, "rt": 731, "response": "Alpha"}, "74": {"stimulus": 77, "trial": 74, "rt": 739, "response": "Beta"}, "32": {"stimulus": 34, "trial": 32, "rt": 643, "response": "Alpha"}, "57": {"stimulus": 4, "trial": 57, "rt": 825, "response": "Alpha"}, "50": {"stimulus": 60, "trial": 50, "rt": 988, "response": "Beta"}}}