{"generation": {"1": {"stimulus": 80, "trial": 1, "rt": 6750}, "0": {"stimulus": 74, "trial": 0, "rt": 11822}, "3": {"stimulus": 72, "trial": 3, "rt": 8298}, "2": {"stimulus": 75, "trial": 2, "rt": 4616}}, "info": {"finish": 1488822063221, "participant": 27, "exposed": true, "lab": false, "start": 1488821855416, "counterbalance": 1, "condition": "Cluster", "browser": {"platform": "Win32", "userAgent": "Mozilla/5.0 (Windows NT 10.0; Win64; x64) AppleWebKit/537.36 (KHTML, like Gecko) Chrome/56.0.2924.87 Safari/537.36"}}, "experiment": {"Paradigm": "TACL", "Stimuli": "Size-Color Squares", "Experiment": "Generating-Categories"}, "observation": {"11": {"stimulus": 32, "trial": 11, "rt": 755}, "10": {"stimulus": 34, "trial": 10, "rt": 733}, "1": {"stimulus": 34, "trial": 1, "rt": 1585}, "0": {"stimulus": 14, "trial": 0, "rt": 2140}, "3": {"stimulus": 16, "trial": 3, "rt": 905}, "2": {"stimulus": 32, "trial": 2, "rt": 1164}, "5": {"stimulus": 14, "trial": 5, "rt": 790}, "4": {"stimulus": 16, "trial": 4, "rt": 907}, "7": {"stimulus": 34, "trial": 7, "rt": 914}, "6": {"stimulus": 32, "trial": 6, "rt": 838}, "9": {"stimulus": 16, "trial": 9, "rt": 701}, "8": {"stimulus": 14, "trial": 8, "rt": 705}}, "generalization": {"56": {"stimulus": 60, "trial": 56, "rt": 572, "response": "Alpha"}, "77": {"stimulus": 69, "trial": 77, "rt": 832, "response": "Beta"}, "54": {"stimulus": 53, "trial": 54, "rt": 521, "response": "Alpha"}, "42": {"stimulus": 27, "trial": 42, "rt": 451, "response": "Alpha"}, "48": {"stimulus": 26, "trial": 48, "rt": 593, "response": "Alpha"}, "43": {"stimulus": 59, "trial": 43, "rt": 598, "response": "Alpha"}, "60": {"stimulus": 8, "trial": 60, "rt": 420, "response": "Alpha"}, "61": {"stimulus": 46, "trial": 61, "rt": 716, "response": "Alpha"}, "62": {"stimulus": 65, "trial": 62, "rt": 2351, "response": "Beta"}, "63": {"stimulus": 38, "trial": 63, "rt": 550, "response": "Alpha"}, "64": {"stimulus": 49, "trial": 64, "rt": 538, "response": "Alpha"}, "49": {"stimulus": 19, "trial": 49, "rt": 417, "response": "Alpha"}, "66": {"stimulus": 56, "trial": 66, "rt": 619, "response": "Alpha"}, "67": {"stimulus": 18, "trial": 67, "rt": 455, "response": "Alpha"}, "68": {"stimulus": 12, "trial": 68, "rt": 408, "response": "Alpha"}, "69": {"stimulus": 2, "trial": 69, "rt": 392, "response": "Alpha"}, "80": {"stimulus": 33, "trial": 80, "rt": 386, "response": "Alpha"}, "52": {"stimulus": 78, "trial": 52, "rt": 577, "response": "Beta"}, "53": {"stimulus": 48, "trial": 53, "rt": 871, "response": "Alpha"}, "24": {"stimulus": 29, "trial": 24, "rt": 436, "response": "Alpha"}, "25": {"stimulus": 0, "trial": 25, "rt": 456, "response": "Alpha"}, "26": {"stimulus": 63, "trial": 26, "rt": 838, "response": "Beta"}, "27": {"stimulus": 73, "trial": 27, "rt": 750, "response": "Beta"}, "20": {"stimulus": 34, "trial": 20, "rt": 522, "response": "Alpha"}, "21": {"stimulus": 7, "trial": 21, "rt": 526, "response": "Alpha"}, "22": {"stimulus": 3, "trial": 22, "rt": 459, "response": "Alpha"}, "23": {"stimulus": 42, "trial": 23, "rt": 449, "response": "Alpha"}, "46": {"stimulus": 11, "trial": 46, "rt": 435, "response": "Alpha"}, "47": {"stimulus": 54, "trial": 47, "rt": 648, "response": "Alpha"}, "44": {"stimulus": 61, "trial": 44, "rt": 539, "response": "Alpha"}, "45": {"stimulus": 51, "trial": 45, "rt": 501, "response": "Alpha"}, "28": {"stimulus": 58, "trial": 28, "rt": 1039, "response": "Alpha"}, "29": {"stimulus": 70, "trial": 29, "rt": 795, "response": "Beta"}, "40": {"stimulus": 17, "trial": 40, "rt": 561, "response": "Alpha"}, "41": {"stimulus": 52, "trial": 41, "rt": 2319, "response": "Alpha"}, "1": {"stimulus": 45, "trial": 1, "rt": 1027, "response": "Alpha"}, "0": {"stimulus": 79, "trial": 0, "rt": 1311, "response": "Beta"}, "3": {"stimulus": 64, "trial": 3, "rt": 794, "response": "Beta"}, "2": {"stimulus": 71, "trial": 2, "rt": 797, "response": "Beta"}, "5": {"stimulus": 30, "trial": 5, "rt": 1170, "response": "Alpha"}, "4": {"stimulus": 57, "trial": 4, "rt": 2433, "response": "Alpha"}, "7": {"stimulus": 50, "trial": 7, "rt": 853, "response": "Alpha"}, "6": {"stimulus": 43, "trial": 6, "rt": 648, "response": "Alpha"}, "9": {"stimulus": 80, "trial": 9, "rt": 804, "response": "Beta"}, "8": {"stimulus": 10, "trial": 8, "rt": 638, "response": "Alpha"}, "78": {"stimulus": 28, "trial": 78, "rt": 426, "response": "Alpha"}, "51": {"stimulus": 72, "trial": 51, "rt": 847, "response": "Beta"}, "39": {"stimulus": 36, "trial": 39, "rt": 471, "response": "Alpha"}, "65": {"stimulus": 37, "trial": 65, "rt": 449, "response": "Alpha"}, "76": {"stimulus": 41, "trial": 76, "rt": 414, "response": "Alpha"}, "75": {"stimulus": 1, "trial": 75, "rt": 384, "response": "Alpha"}, "38": {"stimulus": 76, "trial": 38, "rt": 1335, "response": "Beta"}, "73": {"stimulus": 20, "trial": 73, "rt": 472, "response": "Alpha"}, "72": {"stimulus": 74, "trial": 72, "rt": 402, "response": "Alpha"}, "71": {"stimulus": 35, "trial": 71, "rt": 375, "response": "Alpha"}, "70": {"stimulus": 32, "trial": 70, "rt": 404, "response": "Alpha"}, "59": {"stimulus": 23, "trial": 59, "rt": 576, "response": "Alpha"}, "79": {"stimulus": 47, "trial": 79, "rt": 520, "response": "Alpha"}, "58": {"stimulus": 14, "trial": 58, "rt": 407, "response": "Alpha"}, "11": {"stimulus": 25, "trial": 11, "rt": 560, "response": "Alpha"}, "10": {"stimulus": 22, "trial": 10, "rt": 815, "response": "Alpha"}, "13": {"stimulus": 40, "trial": 13, "rt": 482, "response": "Alpha"}, "12": {"stimulus": 4, "trial": 12, "rt": 642, "response": "Alpha"}, "15": {"stimulus": 21, "trial": 15, "rt": 875, "response": "Alpha"}, "14": {"stimulus": 55, "trial": 14, "rt": 2134, "response": "Alpha"}, "17": {"stimulus": 31, "trial": 17, "rt": 490, "response": "Alpha"}, "16": {"stimulus": 13, "trial": 16, "rt": 419, "response": "Alpha"}, "19": {"stimulus": 67, "trial": 19, "rt": 915, "response": "Beta"}, "18": {"stimulus": 68, "trial": 18, "rt": 944, "response": "Beta"}, "31": {"stimulus": 77, "trial": 31, "rt": 780, "response": "Beta"}, "30": {"stimulus": 15, "trial": 30, "rt": 499, "response": "Alpha"}, "37": {"stimulus": 39, "trial": 37, "rt": 405, "response": "Alpha"}, "36": {"stimulus": 9, "trial": 36, "rt": 470, "response": "Alpha"}, "35": {"stimulus": 75, "trial": 35, "rt": 786, "response": "Beta"}, "34": {"stimulus": 66, "trial": 34, "rt": 900, "response": "Beta"}, "33": {"stimulus": 6, "trial": 33, "rt": 524, "response": "Alpha"}, "55": {"stimulus": 62, "trial": 55, "rt": 1025, "response": "Alpha"}, "74": {"stimulus": 5, "trial": 74, "rt": 409, "response": "Alpha"}, "32": {"stimulus": 44, "trial": 32, "rt": 545, "response": "Alpha"}, "57": {"stimulus": 16, "trial": 57, "rt": 415, "response": "Alpha"}, "50": {"stimulus": 24, "trial": 50, "rt": 437, "response": "Alpha"}}}