{"generation": {"1": {"stimulus": 75, "trial": 1, "rt": 2729}, "0": {"stimulus": 72, "trial": 0, "rt": 6239}, "3": {"stimulus": 76, "trial": 3, "rt": 2518}, "2": {"stimulus": 78, "trial": 2, "rt": 2433}}, "info": {"participant": 28, "exposed": true, "lab": false, "start": 1488821861205, "counterbalance": 1, "condition": "Cluster", "browser": {"platform": "Win32", "userAgent": "Mozilla/5.0 (Windows NT 10.0; rv:51.0) Gecko/20100101 Firefox/51.0"}}, "experiment": {"Paradigm": "TACL", "Stimuli": "Size-Color Squares", "Experiment": "Generating-Categories"}, "observation": {"11": {"stimulus": 14, "trial": 11, "rt": 926}, "10": {"stimulus": 32, "trial": 10, "rt": 2545}, "1": {"stimulus": 14, "trial": 1, "rt": 986}, "0": {"stimulus": 16, "trial": 0, "rt": 4796}, "3": {"stimulus": 32, "trial": 3, "rt": 1122}, "2": {"stimulus": 34, "trial": 2, "rt": 1499}, "5": {"stimulus": 14, "trial": 5, "rt": 933}, "4": {"stimulus": 34, "trial": 4, "rt": 917}, "7": {"stimulus": 16, "trial": 7, "rt": 875}, "6": {"stimulus": 32, "trial": 6, "rt": 909}, "9": {"stimulus": 34, "trial": 9, "rt": 868}, "8": {"stimulus": 16, "trial": 8, "rt": 1118}}, "generalization": {"56": {"stimulus": 20, "trial": 56, "rt": 474, "response": "Alpha"}, "77": {"stimulus": 71, "trial": 77, "rt": 603, "response": "Alpha"}, "54": {"stimulus": 16, "trial": 54, "rt": 361, "response": "Alpha"}, "42": {"stimulus": 44, "trial": 42, "rt": 395, "response": "Alpha"}, "48": {"stimulus": 77, "trial": 48, "rt": 715, "response": "Beta"}, "43": {"stimulus": 72, "trial": 43, "rt": 652, "response": "Beta"}, "60": {"stimulus": 74, "trial": 60, "rt": 662, "response": "Beta"}, "61": {"stimulus": 59, "trial": 61, "rt": 586, "response": "Alpha"}, "62": {"stimulus": 55, "trial": 62, "rt": 535, "response": "Alpha"}, "63": {"stimulus": 0, "trial": 63, "rt": 414, "response": "Alpha"}, "64": {"stimulus": 50, "trial": 64, "rt": 514, "response": "Alpha"}, "49": {"stimulus": 17, "trial": 49, "rt": 631, "response": "Alpha"}, "66": {"stimulus": 43, "trial": 66, "rt": 421, "response": "Alpha"}, "67": {"stimulus": 14, "trial": 67, "rt": 413, "response": "Alpha"}, "68": {"stimulus": 18, "trial": 68, "rt": 367, "response": "Alpha"}, "69": {"stimulus": 38, "trial": 69, "rt": 376, "response": "Alpha"}, "80": {"stimulus": 34, "trial": 80, "rt": 383, "response": "Alpha"}, "52": {"stimulus": 4, "trial": 52, "rt": 474, "response": "Alpha"}, "53": {"stimulus": 45, "trial": 53, "rt": 459, "response": "Alpha"}, "24": {"stimulus": 60, "trial": 24, "rt": 728, "response": "Alpha"}, "25": {"stimulus": 56, "trial": 25, "rt": 493, "response": "Alpha"}, "26": {"stimulus": 64, "trial": 26, "rt": 831, "response": "Beta"}, "27": {"stimulus": 7, "trial": 27, "rt": 669, "response": "Alpha"}, "20": {"stimulus": 68, "trial": 20, "rt": 642, "response": "Beta"}, "21": {"stimulus": 75, "trial": 21, "rt": 603, "response": "Beta"}, "22": {"stimulus": 21, "trial": 22, "rt": 643, "response": "Alpha"}, "23": {"stimulus": 28, "trial": 23, "rt": 570, "response": "Alpha"}, "46": {"stimulus": 30, "trial": 46, "rt": 408, "response": "Alpha"}, "47": {"stimulus": 24, "trial": 47, "rt": 373, "response": "Alpha"}, "44": {"stimulus": 48, "trial": 44, "rt": 699, "response": "Alpha"}, "45": {"stimulus": 35, "trial": 45, "rt": 437, "response": "Alpha"}, "28": {"stimulus": 25, "trial": 28, "rt": 461, "response": "Alpha"}, "29": {"stimulus": 10, "trial": 29, "rt": 450, "response": "Alpha"}, "40": {"stimulus": 33, "trial": 40, "rt": 416, "response": "Alpha"}, "41": {"stimulus": 51, "trial": 41, "rt": 550, "response": "Alpha"}, "1": {"stimulus": 12, "trial": 1, "rt": 585, "response": "Alpha"}, "0": {"stimulus": 42, "trial": 0, "rt": 1120, "response": "Alpha"}, "3": {"stimulus": 65, "trial": 3, "rt": 1034, "response": "Beta"}, "2": {"stimulus": 40, "trial": 2, "rt": 561, "response": "Alpha"}, "5": {"stimulus": 2, "trial": 5, "rt": 472, "response": "Alpha"}, "4": {"stimulus": 13, "trial": 4, "rt": 773, "response": "Alpha"}, "7": {"stimulus": 29, "trial": 7, "rt": 610, "response": "Alpha"}, "6": {"stimulus": 47, "trial": 6, "rt": 776, "response": "Alpha"}, "9": {"stimulus": 26, "trial": 9, "rt": 834, "response": "Alpha"}, "8": {"stimulus": 70, "trial": 8, "rt": 770, "response": "Beta"}, "78": {"stimulus": 8, "trial": 78, "rt": 406, "response": "Alpha"}, "51": {"stimulus": 54, "trial": 51, "rt": 922, "response": "Alpha"}, "39": {"stimulus": 32, "trial": 39, "rt": 449, "response": "Alpha"}, "65": {"stimulus": 31, "trial": 65, "rt": 443, "response": "Alpha"}, "76": {"stimulus": 57, "trial": 76, "rt": 661, "response": "Alpha"}, "75": {"stimulus": 73, "trial": 75, "rt": 850, "response": "Beta"}, "38": {"stimulus": 49, "trial": 38, "rt": 562, "response": "Alpha"}, "73": {"stimulus": 76, "trial": 73, "rt": 429, "response": "Beta"}, "72": {"stimulus": 80, "trial": 72, "rt": 503, "response": "Beta"}, "71": {"stimulus": 79, "trial": 71, "rt": 940, "response": "Beta"}, "70": {"stimulus": 61, "trial": 70, "rt": 361, "response": "Alpha"}, "59": {"stimulus": 53, "trial": 59, "rt": 560, "response": "Alpha"}, "79": {"stimulus": 3, "trial": 79, "rt": 364, "response": "Alpha"}, "58": {"stimulus": 36, "trial": 58, "rt": 733, "response": "Alpha"}, "11": {"stimulus": 78, "trial": 11, "rt": 698, "response": "Beta"}, "10": {"stimulus": 9, "trial": 10, "rt": 745, "response": "Alpha"}, "13": {"stimulus": 69, "trial": 13, "rt": 467, "response": "Beta"}, "12": {"stimulus": 67, "trial": 12, "rt": 656, "response": "Beta"}, "15": {"stimulus": 62, "trial": 15, "rt": 1107, "response": "Alpha"}, "14": {"stimulus": 6, "trial": 14, "rt": 714, "response": "Alpha"}, "17": {"stimulus": 39, "trial": 17, "rt": 682, "response": "Alpha"}, "16": {"stimulus": 66, "trial": 16, "rt": 610, "response": "Beta"}, "19": {"stimulus": 15, "trial": 19, "rt": 481, "response": "Alpha"}, "18": {"stimulus": 22, "trial": 18, "rt": 434, "response": "Alpha"}, "31": {"stimulus": 19, "trial": 31, "rt": 589, "response": "Alpha"}, "30": {"stimulus": 63, "trial": 30, "rt": 853, "response": "Beta"}, "37": {"stimulus": 11, "trial": 37, "rt": 557, "response": "Alpha"}, "36": {"stimulus": 52, "trial": 36, "rt": 2878, "response": "Alpha"}, "35": {"stimulus": 23, "trial": 35, "rt": 439, "response": "Alpha"}, "34": {"stimulus": 58, "trial": 34, "rt": 765, "response": "Alpha"}, "33": {"stimulus": 41, "trial": 33, "rt": 378, "response": "Alpha"}, "55": {"stimulus": 5, "trial": 55, "rt": 412, "response": "Alpha"}, "74": {"stimulus": 46, "trial": 74, "rt": 578, "response": "Beta"}, "32": {"stimulus": 37, "trial": 32, "rt": 443, "response": "Alpha"}, "57": {"stimulus": 27, "trial": 57, "rt": 390, "response": "Alpha"}, "50": {"stimulus": 1, "trial": 50, "rt": 449, "response": "Alpha"}}}