{"generation": {"1": {"stimulus": 72, "trial": 1, "rt": 9273}, "0": {"stimulus": 76, "trial": 0, "rt": 22995}, "3": {"stimulus": 80, "trial": 3, "rt": 5349}, "2": {"stimulus": 64, "trial": 2, "rt": 6684}}, "info": {"finish": 1488822249122, "participant": 29, "exposed": true, "lab": false, "start": 1488821864527, "counterbalance": 3, "condition": "Row", "browser": {"platform": "Win32", "userAgent": "Mozilla/5.0 (Windows NT 10.0; WOW64; rv:51.0) Gecko/20100101 Firefox/51.0"}}, "experiment": {"Paradigm": "TACL", "Stimuli": "Size-Color Squares", "Experiment": "Generating-Categories"}, "observation": {"11": {"stimulus": 16, "trial": 11, "rt": 1051}, "10": {"stimulus": 10, "trial": 10, "rt": 834}, "1": {"stimulus": 10, "trial": 1, "rt": 998}, "0": {"stimulus": 16, "trial": 0, "rt": 18243}, "3": {"stimulus": 12, "trial": 3, "rt": 951}, "2": {"stimulus": 14, "trial": 2, "rt": 992}, "5": {"stimulus": 16, "trial": 5, "rt": 866}, "4": {"stimulus": 14, "trial": 4, "rt": 882}, "7": {"stimulus": 12, "trial": 7, "rt": 4657}, "6": {"stimulus": 10, "trial": 6, "rt": 1084}, "9": {"stimulus": 12, "trial": 9, "rt": 1026}, "8": {"stimulus": 14, "trial": 8, "rt": 936}}, "generalization": {"56": {"stimulus": 55, "trial": 56, "rt": 5088, "response": "Beta"}, "77": {"stimulus": 39, "trial": 77, "rt": 1950, "response": "Beta"}, "54": {"stimulus": 0, "trial": 54, "rt": 1596, "response": "Alpha"}, "42": {"stimulus": 34, "trial": 42, "rt": 681, "response": "Alpha"}, "48": {"stimulus": 29, "trial": 48, "rt": 683, "response": "Alpha"}, "43": {"stimulus": 58, "trial": 43, "rt": 766, "response": "Beta"}, "60": {"stimulus": 43, "trial": 60, "rt": 1816, "response": "Beta"}, "61": {"stimulus": 42, "trial": 61, "rt": 1038, "response": "Beta"}, "62": {"stimulus": 80, "trial": 62, "rt": 750, "response": "Beta"}, "63": {"stimulus": 16, "trial": 63, "rt": 1322, "response": "Alpha"}, "64": {"stimulus": 33, "trial": 64, "rt": 3785, "response": "Beta"}, "49": {"stimulus": 35, "trial": 49, "rt": 772, "response": "Alpha"}, "66": {"stimulus": 25, "trial": 66, "rt": 3365, "response": "Alpha"}, "67": {"stimulus": 74, "trial": 67, "rt": 2511, "response": "Beta"}, "68": {"stimulus": 56, "trial": 68, "rt": 14184, "response": "Beta"}, "69": {"stimulus": 49, "trial": 69, "rt": 1155, "response": "Beta"}, "80": {"stimulus": 51, "trial": 80, "rt": 434, "response": "Beta"}, "52": {"stimulus": 78, "trial": 52, "rt": 1737, "response": "Beta"}, "53": {"stimulus": 62, "trial": 53, "rt": 14534, "response": "Beta"}, "24": {"stimulus": 19, "trial": 24, "rt": 864, "response": "Alpha"}, "25": {"stimulus": 22, "trial": 25, "rt": 682, "response": "Alpha"}, "26": {"stimulus": 2, "trial": 26, "rt": 1019, "response": "Alpha"}, "27": {"stimulus": 13, "trial": 27, "rt": 469, "response": "Alpha"}, "20": {"stimulus": 30, "trial": 20, "rt": 900, "response": "Beta"}, "21": {"stimulus": 24, "trial": 21, "rt": 993, "response": "Alpha"}, "22": {"stimulus": 67, "trial": 22, "rt": 829, "response": "Beta"}, "23": {"stimulus": 36, "trial": 23, "rt": 3610, "response": "Beta"}, "46": {"stimulus": 65, "trial": 46, "rt": 882, "response": "Beta"}, "47": {"stimulus": 46, "trial": 47, "rt": 750, "response": "Beta"}, "44": {"stimulus": 73, "trial": 44, "rt": 954, "response": "Beta"}, "45": {"stimulus": 21, "trial": 45, "rt": 654, "response": "Alpha"}, "28": {"stimulus": 17, "trial": 28, "rt": 448, "response": "Alpha"}, "29": {"stimulus": 69, "trial": 29, "rt": 951, "response": "Beta"}, "40": {"stimulus": 53, "trial": 40, "rt": 1606, "response": "Beta"}, "41": {"stimulus": 45, "trial": 41, "rt": 1141, "response": "Beta"}, "1": {"stimulus": 5, "trial": 1, "rt": 1384, "response": "Alpha"}, "0": {"stimulus": 1, "trial": 0, "rt": 1452, "response": "Alpha"}, "3": {"stimulus": 70, "trial": 3, "rt": 906, "response": "Beta"}, "2": {"stimulus": 18, "trial": 2, "rt": 1717, "response": "Alpha"}, "5": {"stimulus": 68, "trial": 5, "rt": 799, "response": "Beta"}, "4": {"stimulus": 54, "trial": 4, "rt": 792, "response": "Beta"}, "7": {"stimulus": 10, "trial": 7, "rt": 716, "response": "Alpha"}, "6": {"stimulus": 28, "trial": 6, "rt": 2750, "response": "Alpha"}, "9": {"stimulus": 50, "trial": 9, "rt": 900, "response": "Beta"}, "8": {"stimulus": 9, "trial": 8, "rt": 682, "response": "Alpha"}, "78": {"stimulus": 59, "trial": 78, "rt": 489, "response": "Beta"}, "51": {"stimulus": 27, "trial": 51, "rt": 1998, "response": "Alpha"}, "39": {"stimulus": 75, "trial": 39, "rt": 1306, "response": "Beta"}, "65": {"stimulus": 3, "trial": 65, "rt": 848, "response": "Alpha"}, "76": {"stimulus": 61, "trial": 76, "rt": 667, "response": "Beta"}, "75": {"stimulus": 15, "trial": 75, "rt": 1652, "response": "Alpha"}, "38": {"stimulus": 11, "trial": 38, "rt": 965, "response": "Alpha"}, "73": {"stimulus": 60, "trial": 73, "rt": 3364, "response": "Beta"}, "72": {"stimulus": 77, "trial": 72, "rt": 8786, "response": "Beta"}, "71": {"stimulus": 66, "trial": 71, "rt": 5702, "response": "Beta"}, "70": {"stimulus": 71, "trial": 70, "rt": 10176, "response": "Beta"}, "59": {"stimulus": 8, "trial": 59, "rt": 1043, "response": "Alpha"}, "79": {"stimulus": 57, "trial": 79, "rt": 453, "response": "Beta"}, "58": {"stimulus": 23, "trial": 58, "rt": 2332, "response": "Alpha"}, "11": {"stimulus": 7, "trial": 11, "rt": 633, "response": "Alpha"}, "10": {"stimulus": 6, "trial": 10, "rt": 715, "response": "Alpha"}, "13": {"stimulus": 48, "trial": 13, "rt": 964, "response": "Beta"}, "12": {"stimulus": 44, "trial": 12, "rt": 6443, "response": "Beta"}, "15": {"stimulus": 31, "trial": 15, "rt": 1766, "response": "Beta"}, "14": {"stimulus": 26, "trial": 14, "rt": 10392, "response": "Alpha"}, "17": {"stimulus": 63, "trial": 17, "rt": 717, "response": "Beta"}, "16": {"stimulus": 64, "trial": 16, "rt": 786, "response": "Beta"}, "19": {"stimulus": 37, "trial": 19, "rt": 699, "response": "Beta"}, "18": {"stimulus": 32, "trial": 18, "rt": 2014, "response": "Beta"}, "31": {"stimulus": 38, "trial": 31, "rt": 1024, "response": "Alpha"}, "30": {"stimulus": 76, "trial": 30, "rt": 1040, "response": "Beta"}, "37": {"stimulus": 72, "trial": 37, "rt": 1217, "response": "Beta"}, "36": {"stimulus": 40, "trial": 36, "rt": 1635, "response": "Beta"}, "35": {"stimulus": 79, "trial": 35, "rt": 1572, "response": "Beta"}, "34": {"stimulus": 41, "trial": 34, "rt": 10488, "response": "Beta"}, "33": {"stimulus": 12, "trial": 33, "rt": 4100, "response": "Alpha"}, "55": {"stimulus": 20, "trial": 55, "rt": 17884, "response": "Alpha"}, "74": {"stimulus": 14, "trial": 74, "rt": 14169, "response": "Alpha"}, "32": {"stimulus": 52, "trial": 32, "rt": 1181, "response": "Beta"}, "57": {"stimulus": 47, "trial": 57, "rt": 3126, "response": "Beta"}, "50": {"stimulus": 4, "trial": 50, "rt": 1100, "response": "Alpha"}}}