{"generation": {"1": {"stimulus": 80, "trial": 1, "rt": 22499}, "0": {"stimulus": 72, "trial": 0, "rt": 49444}, "3": {"stimulus": 8, "trial": 3, "rt": 4281}, "2": {"stimulus": 0, "trial": 2, "rt": 10820}}, "info": {"finish": 1488822174551, "participant": 32, "exposed": true, "lab": false, "start": 1488821867283, "counterbalance": 5, "condition": "XOR", "browser": {"platform": "Win32", "userAgent": "Mozilla/5.0 (Windows NT 10.0; WOW64) AppleWebKit/537.36 (KHTML, like Gecko) Chrome/56.0.2924.87 Safari/537.36"}}, "experiment": {"Paradigm": "TACL", "Stimuli": "Size-Color Squares", "Experiment": "Generating-Categories"}, "observation": {"11": {"stimulus": 80, "trial": 11, "rt": 1189}, "10": {"stimulus": 0, "trial": 10, "rt": 1375}, "1": {"stimulus": 80, "trial": 1, "rt": 2745}, "0": {"stimulus": 10, "trial": 0, "rt": 7002}, "3": {"stimulus": 0, "trial": 3, "rt": 2670}, "2": {"stimulus": 70, "trial": 2, "rt": 1713}, "5": {"stimulus": 10, "trial": 5, "rt": 1811}, "4": {"stimulus": 0, "trial": 4, "rt": 1539}, "7": {"stimulus": 80, "trial": 7, "rt": 1254}, "6": {"stimulus": 70, "trial": 6, "rt": 1552}, "9": {"stimulus": 70, "trial": 9, "rt": 1302}, "8": {"stimulus": 10, "trial": 8, "rt": 1401}}, "generalization": {"56": {"stimulus": 20, "trial": 56, "rt": 643, "response": "Alpha"}, "77": {"stimulus": 7, "trial": 77, "rt": 1283, "response": "Beta"}, "54": {"stimulus": 37, "trial": 54, "rt": 677, "response": "Alpha"}, "42": {"stimulus": 2, "trial": 42, "rt": 823, "response": "Alpha"}, "48": {"stimulus": 45, "trial": 48, "rt": 1301, "response": "Alpha"}, "43": {"stimulus": 16, "trial": 43, "rt": 1372, "response": "Alpha"}, "60": {"stimulus": 38, "trial": 60, "rt": 463, "response": "Alpha"}, "61": {"stimulus": 67, "trial": 61, "rt": 889, "response": "Alpha"}, "62": {"stimulus": 34, "trial": 62, "rt": 809, "response": "Alpha"}, "63": {"stimulus": 44, "trial": 63, "rt": 719, "response": "Alpha"}, "64": {"stimulus": 62, "trial": 64, "rt": 489, "response": "Alpha"}, "49": {"stimulus": 47, "trial": 49, "rt": 668, "response": "Alpha"}, "66": {"stimulus": 28, "trial": 66, "rt": 470, "response": "Alpha"}, "67": {"stimulus": 25, "trial": 67, "rt": 626, "response": "Alpha"}, "68": {"stimulus": 4, "trial": 68, "rt": 506, "response": "Alpha"}, "69": {"stimulus": 56, "trial": 69, "rt": 520, "response": "Alpha"}, "80": {"stimulus": 1, "trial": 80, "rt": 623, "response": "Alpha"}, "52": {"stimulus": 42, "trial": 52, "rt": 549, "response": "Alpha"}, "53": {"stimulus": 59, "trial": 53, "rt": 855, "response": "Alpha"}, "24": {"stimulus": 27, "trial": 24, "rt": 524, "response": "Alpha"}, "25": {"stimulus": 66, "trial": 25, "rt": 489, "response": "Alpha"}, "26": {"stimulus": 12, "trial": 26, "rt": 605, "response": "Alpha"}, "27": {"stimulus": 48, "trial": 27, "rt": 489, "response": "Alpha"}, "20": {"stimulus": 32, "trial": 20, "rt": 867, "response": "Alpha"}, "21": {"stimulus": 14, "trial": 21, "rt": 597, "response": "Alpha"}, "22": {"stimulus": 21, "trial": 22, "rt": 598, "response": "Alpha"}, "23": {"stimulus": 39, "trial": 23, "rt": 695, "response": "Alpha"}, "46": {"stimulus": 33, "trial": 46, "rt": 610, "response": "Alpha"}, "47": {"stimulus": 74, "trial": 47, "rt": 1177, "response": "Beta"}, "44": {"stimulus": 17, "trial": 44, "rt": 1380, "response": "Alpha"}, "45": {"stimulus": 71, "trial": 45, "rt": 1544, "response": "Beta"}, "28": {"stimulus": 69, "trial": 28, "rt": 1768, "response": "Alpha"}, "29": {"stimulus": 0, "trial": 29, "rt": 398, "response": "Alpha"}, "40": {"stimulus": 51, "trial": 40, "rt": 2254, "response": "Alpha"}, "41": {"stimulus": 46, "trial": 41, "rt": 690, "response": "Alpha"}, "1": {"stimulus": 13, "trial": 1, "rt": 5207, "response": "Alpha"}, "0": {"stimulus": 60, "trial": 0, "rt": 4686, "response": "Beta"}, "3": {"stimulus": 75, "trial": 3, "rt": 1794, "response": "Beta"}, "2": {"stimulus": 15, "trial": 2, "rt": 3636, "response": "Alpha"}, "5": {"stimulus": 9, "trial": 5, "rt": 1924, "response": "Alpha"}, "4": {"stimulus": 54, "trial": 4, "rt": 1674, "response": "Alpha"}, "7": {"stimulus": 41, "trial": 7, "rt": 831, "response": "Alpha"}, "6": {"stimulus": 40, "trial": 6, "rt": 1003, "response": "Alpha"}, "9": {"stimulus": 65, "trial": 9, "rt": 982, "response": "Beta"}, "8": {"stimulus": 73, "trial": 8, "rt": 1374, "response": "Beta"}, "78": {"stimulus": 22, "trial": 78, "rt": 1449, "response": "Alpha"}, "51": {"stimulus": 52, "trial": 51, "rt": 718, "response": "Alpha"}, "39": {"stimulus": 79, "trial": 39, "rt": 272, "response": "Alpha"}, "65": {"stimulus": 78, "trial": 65, "rt": 567, "response": "Alpha"}, "76": {"stimulus": 8, "trial": 76, "rt": 1516, "response": "Beta"}, "75": {"stimulus": 24, "trial": 75, "rt": 637, "response": "Alpha"}, "38": {"stimulus": 10, "trial": 38, "rt": 622, "response": "Alpha"}, "73": {"stimulus": 26, "trial": 73, "rt": 1098, "response": "Alpha"}, "72": {"stimulus": 49, "trial": 72, "rt": 690, "response": "Alpha"}, "71": {"stimulus": 58, "trial": 71, "rt": 648, "response": "Alpha"}, "70": {"stimulus": 5, "trial": 70, "rt": 727, "response": "Alpha"}, "59": {"stimulus": 18, "trial": 59, "rt": 719, "response": "Alpha"}, "79": {"stimulus": 3, "trial": 79, "rt": 1615, "response": "Beta"}, "58": {"stimulus": 61, "trial": 58, "rt": 624, "response": "Alpha"}, "11": {"stimulus": 6, "trial": 11, "rt": 1274, "response": "Alpha"}, "10": {"stimulus": 50, "trial": 10, "rt": 1669, "response": "Alpha"}, "13": {"stimulus": 31, "trial": 13, "rt": 654, "response": "Alpha"}, "12": {"stimulus": 30, "trial": 12, "rt": 1095, "response": "Alpha"}, "15": {"stimulus": 36, "trial": 15, "rt": 610, "response": "Alpha"}, "14": {"stimulus": 53, "trial": 14, "rt": 1108, "response": "Alpha"}, "17": {"stimulus": 77, "trial": 17, "rt": 552, "response": "Alpha"}, "16": {"stimulus": 23, "trial": 16, "rt": 576, "response": "Alpha"}, "19": {"stimulus": 11, "trial": 19, "rt": 611, "response": "Alpha"}, "18": {"stimulus": 55, "trial": 18, "rt": 723, "response": "Alpha"}, "31": {"stimulus": 57, "trial": 31, "rt": 677, "response": "Alpha"}, "30": {"stimulus": 63, "trial": 30, "rt": 528, "response": "Alpha"}, "37": {"stimulus": 72, "trial": 37, "rt": 727, "response": "Alpha"}, "36": {"stimulus": 29, "trial": 36, "rt": 593, "response": "Alpha"}, "35": {"stimulus": 64, "trial": 35, "rt": 237, "response": "Alpha"}, "34": {"stimulus": 19, "trial": 34, "rt": 479, "response": "Alpha"}, "33": {"stimulus": 70, "trial": 33, "rt": 579, "response": "Alpha"}, "55": {"stimulus": 43, "trial": 55, "rt": 889, "response": "Alpha"}, "74": {"stimulus": 35, "trial": 74, "rt": 643, "response": "Alpha"}, "32": {"stimulus": 68, "trial": 32, "rt": 751, "response": "Alpha"}, "57": {"stimulus": 76, "trial": 57, "rt": 2485, "response": "Alpha"}, "50": {"stimulus": 80, "trial": 50, "rt": 1235, "response": "Beta"}}}