{"generation": {"1": {"stimulus": 71, "trial": 1, "rt": 7467}, "0": {"stimulus": 80, "trial": 0, "rt": 51733}, "3": {"stimulus": 51, "trial": 3, "rt": 4961}, "2": {"stimulus": 61, "trial": 2, "rt": 8819}}, "info": {"participant": 33, "exposed": true, "lab": false, "start": 1488821873910, "counterbalance": 1, "condition": "Cluster", "browser": {"platform": "Win32", "userAgent": "Mozilla/5.0 (Windows NT 10.0; WOW64; rv:51.0) Gecko/20100101 Firefox/51.0"}}, "experiment": {"Paradigm": "TACL", "Stimuli": "Size-Color Squares", "Experiment": "Generating-Categories"}, "observation": {"11": {"stimulus": 14, "trial": 11, "rt": 4876}, "10": {"stimulus": 34, "trial": 10, "rt": 2274}, "1": {"stimulus": 32, "trial": 1, "rt": 1230}, "0": {"stimulus": 34, "trial": 0, "rt": 1157}, "3": {"stimulus": 14, "trial": 3, "rt": 3161}, "2": {"stimulus": 16, "trial": 2, "rt": 4633}, "5": {"stimulus": 16, "trial": 5, "rt": 1171}, "4": {"stimulus": 32, "trial": 4, "rt": 1776}, "7": {"stimulus": 34, "trial": 7, "rt": 951}, "6": {"stimulus": 14, "trial": 6, "rt": 1218}, "9": {"stimulus": 32, "trial": 9, "rt": 1341}, "8": {"stimulus": 16, "trial": 8, "rt": 1487}}, "generalization": {"56": {"stimulus": 8, "trial": 56, "rt": 4105, "response": "Alpha"}, "77": {"stimulus": 58, "trial": 77, "rt": 805, "response": "Alpha"}, "54": {"stimulus": 68, "trial": 54, "rt": 804, "response": "Alpha"}, "42": {"stimulus": 14, "trial": 42, "rt": 1069, "response": "Beta"}, "48": {"stimulus": 26, "trial": 48, "rt": 1089, "response": "Beta"}, "43": {"stimulus": 80, "trial": 43, "rt": 1135, "response": "Beta"}, "60": {"stimulus": 69, "trial": 60, "rt": 1320, "response": "Beta"}, "61": {"stimulus": 77, "trial": 61, "rt": 1135, "response": "Alpha"}, "62": {"stimulus": 71, "trial": 62, "rt": 780, "response": "Beta"}, "63": {"stimulus": 7, "trial": 63, "rt": 1230, "response": "Alpha"}, "64": {"stimulus": 54, "trial": 64, "rt": 646, "response": "Alpha"}, "49": {"stimulus": 61, "trial": 49, "rt": 1068, "response": "Beta"}, "66": {"stimulus": 22, "trial": 66, "rt": 770, "response": "Alpha"}, "67": {"stimulus": 62, "trial": 67, "rt": 760, "response": "Beta"}, "68": {"stimulus": 32, "trial": 68, "rt": 755, "response": "Beta"}, "69": {"stimulus": 6, "trial": 69, "rt": 822, "response": "Alpha"}, "80": {"stimulus": 50, "trial": 80, "rt": 2674, "response": "Beta"}, "52": {"stimulus": 2, "trial": 52, "rt": 939, "response": "Alpha"}, "53": {"stimulus": 51, "trial": 53, "rt": 955, "response": "Beta"}, "24": {"stimulus": 60, "trial": 24, "rt": 2558, "response": "Beta"}, "25": {"stimulus": 57, "trial": 25, "rt": 1567, "response": "Alpha"}, "26": {"stimulus": 40, "trial": 26, "rt": 1941, "response": "Beta"}, "27": {"stimulus": 38, "trial": 27, "rt": 818, "response": "Alpha"}, "20": {"stimulus": 25, "trial": 20, "rt": 1098, "response": "Alpha"}, "21": {"stimulus": 39, "trial": 21, "rt": 1510, "response": "Alpha"}, "22": {"stimulus": 79, "trial": 22, "rt": 886, "response": "Beta"}, "23": {"stimulus": 4, "trial": 23, "rt": 2774, "response": "Alpha"}, "46": {"stimulus": 37, "trial": 46, "rt": 950, "response": "Alpha"}, "47": {"stimulus": 27, "trial": 47, "rt": 761, "response": "Alpha"}, "44": {"stimulus": 56, "trial": 44, "rt": 1056, "response": "Beta"}, "45": {"stimulus": 0, "trial": 45, "rt": 776, "response": "Alpha"}, "28": {"stimulus": 41, "trial": 28, "rt": 1231, "response": "Beta"}, "29": {"stimulus": 78, "trial": 29, "rt": 1017, "response": "Beta"}, "40": {"stimulus": 35, "trial": 40, "rt": 716, "response": "Beta"}, "41": {"stimulus": 67, "trial": 41, "rt": 1302, "response": "Alpha"}, "1": {"stimulus": 64, "trial": 1, "rt": 1220, "response": "Beta"}, "0": {"stimulus": 63, "trial": 0, "rt": 945, "response": "Beta"}, "3": {"stimulus": 16, "trial": 3, "rt": 1149, "response": "Beta"}, "2": {"stimulus": 10, "trial": 2, "rt": 1674, "response": "Alpha"}, "5": {"stimulus": 31, "trial": 5, "rt": 1513, "response": "Beta"}, "4": {"stimulus": 1, "trial": 4, "rt": 1001, "response": "Alpha"}, "7": {"stimulus": 59, "trial": 7, "rt": 1478, "response": "Beta"}, "6": {"stimulus": 15, "trial": 6, "rt": 1196, "response": "Beta"}, "9": {"stimulus": 45, "trial": 9, "rt": 1526, "response": "Alpha"}, "8": {"stimulus": 72, "trial": 8, "rt": 1000, "response": "Alpha"}, "78": {"stimulus": 70, "trial": 78, "rt": 898, "response": "Beta"}, "51": {"stimulus": 21, "trial": 51, "rt": 1085, "response": "Alpha"}, "39": {"stimulus": 74, "trial": 39, "rt": 1166, "response": "Alpha"}, "65": {"stimulus": 19, "trial": 65, "rt": 465, "response": "Alpha"}, "76": {"stimulus": 52, "trial": 76, "rt": 1022, "response": "Beta"}, "75": {"stimulus": 33, "trial": 75, "rt": 1183, "response": "Beta"}, "38": {"stimulus": 3, "trial": 38, "rt": 882, "response": "Alpha"}, "73": {"stimulus": 76, "trial": 73, "rt": 1303, "response": "Alpha"}, "72": {"stimulus": 11, "trial": 72, "rt": 691, "response": "Alpha"}, "71": {"stimulus": 29, "trial": 71, "rt": 870, "response": "Alpha"}, "70": {"stimulus": 73, "trial": 70, "rt": 764, "response": "Beta"}, "59": {"stimulus": 42, "trial": 59, "rt": 971, "response": "Beta"}, "79": {"stimulus": 43, "trial": 79, "rt": 983, "response": "Beta"}, "58": {"stimulus": 66, "trial": 58, "rt": 599, "response": "Alpha"}, "11": {"stimulus": 30, "trial": 11, "rt": 3043, "response": "Alpha"}, "10": {"stimulus": 5, "trial": 10, "rt": 761, "response": "Beta"}, "13": {"stimulus": 23, "trial": 13, "rt": 1239, "response": "Alpha"}, "12": {"stimulus": 18, "trial": 12, "rt": 2661, "response": "Alpha"}, "15": {"stimulus": 17, "trial": 15, "rt": 1127, "response": "Alpha"}, "14": {"stimulus": 53, "trial": 14, "rt": 905, "response": "Beta"}, "17": {"stimulus": 20, "trial": 17, "rt": 1923, "response": "Alpha"}, "16": {"stimulus": 46, "trial": 16, "rt": 1150, "response": "Alpha"}, "19": {"stimulus": 36, "trial": 19, "rt": 706, "response": "Alpha"}, "18": {"stimulus": 55, "trial": 18, "rt": 965, "response": "Alpha"}, "31": {"stimulus": 44, "trial": 31, "rt": 964, "response": "Beta"}, "30": {"stimulus": 65, "trial": 30, "rt": 894, "response": "Alpha"}, "37": {"stimulus": 34, "trial": 37, "rt": 921, "response": "Beta"}, "36": {"stimulus": 24, "trial": 36, "rt": 646, "response": "Beta"}, "35": {"stimulus": 12, "trial": 35, "rt": 999, "response": "Alpha"}, "34": {"stimulus": 48, "trial": 34, "rt": 2050, "response": "Alpha"}, "33": {"stimulus": 13, "trial": 33, "rt": 1737, "response": "Alpha"}, "55": {"stimulus": 28, "trial": 55, "rt": 1600, "response": "Beta"}, "74": {"stimulus": 47, "trial": 74, "rt": 820, "response": "Alpha"}, "32": {"stimulus": 9, "trial": 32, "rt": 1312, "response": "Alpha"}, "57": {"stimulus": 49, "trial": 57, "rt": 1139, "response": "Alpha"}, "50": {"stimulus": 75, "trial": 50, "rt": 1255, "response": "Alpha"}}}