{"generation": {"1": {"stimulus": 4, "trial": 1, "rt": 8134}, "0": {"stimulus": 0, "trial": 0, "rt": 98793}, "3": {"stimulus": 21, "trial": 3, "rt": 8199}, "2": {"stimulus": 3, "trial": 2, "rt": 7700}}, "info": {"finish": 1488822496422, "participant": 34, "exposed": true, "lab": false, "start": 1488821881715, "counterbalance": 3, "condition": "XOR", "browser": {"platform": "MacIntel", "userAgent": "Mozilla/5.0 (Macintosh; Intel Mac OS X 10_11_6) AppleWebKit/537.36 (KHTML, like Gecko) Chrome/55.0.2883.95 Safari/537.36"}}, "experiment": {"Paradigm": "TACL", "Stimuli": "Size-Color Squares", "Experiment": "Generating-Categories"}, "observation": {"11": {"stimulus": 70, "trial": 11, "rt": 2381}, "10": {"stimulus": 80, "trial": 10, "rt": 41462}, "1": {"stimulus": 10, "trial": 1, "rt": 2697}, "0": {"stimulus": 70, "trial": 0, "rt": 3485}, "3": {"stimulus": 80, "trial": 3, "rt": 3240}, "2": {"stimulus": 0, "trial": 2, "rt": 3354}, "5": {"stimulus": 70, "trial": 5, "rt": 1768}, "4": {"stimulus": 10, "trial": 4, "rt": 1820}, "7": {"stimulus": 0, "trial": 7, "rt": 4013}, "6": {"stimulus": 80, "trial": 6, "rt": 7121}, "9": {"stimulus": 10, "trial": 9, "rt": 4362}, "8": {"stimulus": 0, "trial": 8, "rt": 4159}}, "generalization": {"56": {"stimulus": 49, "trial": 56, "rt": 1001, "response": "Beta"}, "77": {"stimulus": 69, "trial": 77, "rt": 727, "response": "Beta"}, "54": {"stimulus": 65, "trial": 54, "rt": 689, "response": "Beta"}, "42": {"stimulus": 47, "trial": 42, "rt": 2369, "response": "Beta"}, "48": {"stimulus": 20, "trial": 48, "rt": 783, "response": "Beta"}, "43": {"stimulus": 50, "trial": 43, "rt": 2099, "response": "Beta"}, "60": {"stimulus": 59, "trial": 60, "rt": 847, "response": "Beta"}, "61": {"stimulus": 78, "trial": 61, "rt": 951, "response": "Beta"}, "62": {"stimulus": 67, "trial": 62, "rt": 591, "response": "Beta"}, "63": {"stimulus": 11, "trial": 63, "rt": 1055, "response": "Alpha"}, "64": {"stimulus": 16, "trial": 64, "rt": 930, "response": "Beta"}, "49": {"stimulus": 21, "trial": 49, "rt": 1181, "response": "Beta"}, "66": {"stimulus": 64, "trial": 66, "rt": 945, "response": "Beta"}, "67": {"stimulus": 3, "trial": 67, "rt": 1106, "response": "Beta"}, "68": {"stimulus": 80, "trial": 68, "rt": 1170, "response": "Beta"}, "69": {"stimulus": 36, "trial": 69, "rt": 11383, "response": "Beta"}, "80": {"stimulus": 37, "trial": 80, "rt": 931, "response": "Beta"}, "52": {"stimulus": 23, "trial": 52, "rt": 1416, "response": "Alpha"}, "53": {"stimulus": 44, "trial": 53, "rt": 1207, "response": "Alpha"}, "24": {"stimulus": 51, "trial": 24, "rt": 1436, "response": "Beta"}, "25": {"stimulus": 54, "trial": 25, "rt": 2378, "response": "Beta"}, "26": {"stimulus": 66, "trial": 26, "rt": 1071, "response": "Beta"}, "27": {"stimulus": 13, "trial": 27, "rt": 1256, "response": "Beta"}, "20": {"stimulus": 14, "trial": 20, "rt": 1715, "response": "Beta"}, "21": {"stimulus": 40, "trial": 21, "rt": 2130, "response": "Beta"}, "22": {"stimulus": 1, "trial": 22, "rt": 1670, "response": "Alpha"}, "23": {"stimulus": 28, "trial": 23, "rt": 1031, "response": "Beta"}, "46": {"stimulus": 63, "trial": 46, "rt": 808, "response": "Beta"}, "47": {"stimulus": 41, "trial": 47, "rt": 1015, "response": "Beta"}, "44": {"stimulus": 56, "trial": 44, "rt": 1308, "response": "Beta"}, "45": {"stimulus": 30, "trial": 45, "rt": 2276, "response": "Alpha"}, "28": {"stimulus": 6, "trial": 28, "rt": 977, "response": "Alpha"}, "29": {"stimulus": 72, "trial": 29, "rt": 1158, "response": "Beta"}, "40": {"stimulus": 58, "trial": 40, "rt": 1041, "response": "Beta"}, "41": {"stimulus": 52, "trial": 41, "rt": 1307, "response": "Beta"}, "1": {"stimulus": 35, "trial": 1, "rt": 1531, "response": "Alpha"}, "0": {"stimulus": 38, "trial": 0, "rt": 1698, "response": "Beta"}, "3": {"stimulus": 15, "trial": 3, "rt": 1620, "response": "Beta"}, "2": {"stimulus": 60, "trial": 2, "rt": 1691, "response": "Beta"}, "5": {"stimulus": 12, "trial": 5, "rt": 1519, "response": "Alpha"}, "4": {"stimulus": 27, "trial": 4, "rt": 4051, "response": "Beta"}, "7": {"stimulus": 22, "trial": 7, "rt": 2032, "response": "Beta"}, "6": {"stimulus": 29, "trial": 6, "rt": 1813, "response": "Beta"}, "9": {"stimulus": 68, "trial": 9, "rt": 1383, "response": "Beta"}, "8": {"stimulus": 73, "trial": 8, "rt": 1004, "response": "Beta"}, "78": {"stimulus": 45, "trial": 78, "rt": 1322, "response": "Beta"}, "51": {"stimulus": 8, "trial": 51, "rt": 903, "response": "Alpha"}, "39": {"stimulus": 34, "trial": 39, "rt": 993, "response": "Beta"}, "65": {"stimulus": 17, "trial": 65, "rt": 970, "response": "Beta"}, "76": {"stimulus": 77, "trial": 76, "rt": 1043, "response": "Beta"}, "75": {"stimulus": 48, "trial": 75, "rt": 519, "response": "Beta"}, "38": {"stimulus": 79, "trial": 38, "rt": 875, "response": "Beta"}, "73": {"stimulus": 10, "trial": 73, "rt": 803, "response": "Alpha"}, "72": {"stimulus": 2, "trial": 72, "rt": 714, "response": "Alpha"}, "71": {"stimulus": 7, "trial": 71, "rt": 568, "response": "Alpha"}, "70": {"stimulus": 25, "trial": 70, "rt": 1315, "response": "Alpha"}, "59": {"stimulus": 19, "trial": 59, "rt": 546, "response": "Alpha"}, "79": {"stimulus": 46, "trial": 79, "rt": 528, "response": "Beta"}, "58": {"stimulus": 4, "trial": 58, "rt": 1092, "response": "Alpha"}, "11": {"stimulus": 61, "trial": 11, "rt": 1131, "response": "Beta"}, "10": {"stimulus": 0, "trial": 10, "rt": 1765, "response": "Alpha"}, "13": {"stimulus": 18, "trial": 13, "rt": 1685, "response": "Alpha"}, "12": {"stimulus": 74, "trial": 12, "rt": 852, "response": "Beta"}, "15": {"stimulus": 76, "trial": 15, "rt": 949, "response": "Beta"}, "14": {"stimulus": 31, "trial": 14, "rt": 801, "response": "Beta"}, "17": {"stimulus": 57, "trial": 17, "rt": 1335, "response": "Beta"}, "16": {"stimulus": 55, "trial": 16, "rt": 2579, "response": "Beta"}, "19": {"stimulus": 33, "trial": 19, "rt": 3344, "response": "Alpha"}, "18": {"stimulus": 70, "trial": 18, "rt": 1178, "response": "Beta"}, "31": {"stimulus": 71, "trial": 31, "rt": 2465, "response": "Beta"}, "30": {"stimulus": 39, "trial": 30, "rt": 10855, "response": "Beta"}, "37": {"stimulus": 43, "trial": 37, "rt": 1428, "response": "Beta"}, "36": {"stimulus": 5, "trial": 36, "rt": 652, "response": "Alpha"}, "35": {"stimulus": 62, "trial": 35, "rt": 1533, "response": "Beta"}, "34": {"stimulus": 26, "trial": 34, "rt": 1717, "response": "Alpha"}, "33": {"stimulus": 9, "trial": 33, "rt": 889, "response": "Alpha"}, "55": {"stimulus": 32, "trial": 55, "rt": 937, "response": "Beta"}, "74": {"stimulus": 53, "trial": 74, "rt": 816, "response": "Beta"}, "32": {"stimulus": 42, "trial": 32, "rt": 678, "response": "Beta"}, "57": {"stimulus": 24, "trial": 57, "rt": 1058, "response": "Alpha"}, "50": {"stimulus": 75, "trial": 50, "rt": 2172, "response": "Beta"}}}