{"generation": {"1": {"stimulus": 80, "trial": 1, "rt": 16369}, "0": {"stimulus": 73, "trial": 0, "rt": 25582}, "3": {"stimulus": 75, "trial": 3, "rt": 42050}, "2": {"stimulus": 72, "trial": 2, "rt": 23272}}, "info": {"participant": 35, "exposed": true, "lab": false, "start": 1488821886226, "counterbalance": 0, "condition": "Cluster", "browser": {"platform": "Win32", "userAgent": "Mozilla/5.0 (Windows NT 10.0; WOW64) AppleWebKit/537.36 (KHTML, like Gecko) Chrome/56.0.2924.87 Safari/537.36"}}, "experiment": {"Paradigm": "TACL", "Stimuli": "Size-Color Squares", "Experiment": "Generating-Categories"}, "observation": {"11": {"stimulus": 32, "trial": 11, "rt": 3533}, "10": {"stimulus": 16, "trial": 10, "rt": 3927}, "1": {"stimulus": 34, "trial": 1, "rt": 12654}, "0": {"stimulus": 14, "trial": 0, "rt": 15198}, "3": {"stimulus": 32, "trial": 3, "rt": 6681}, "2": {"stimulus": 16, "trial": 2, "rt": 8813}, "5": {"stimulus": 16, "trial": 5, "rt": 5491}, "4": {"stimulus": 32, "trial": 4, "rt": 6480}, "7": {"stimulus": 34, "trial": 7, "rt": 4110}, "6": {"stimulus": 14, "trial": 6, "rt": 7618}, "9": {"stimulus": 14, "trial": 9, "rt": 3557}, "8": {"stimulus": 34, "trial": 8, "rt": 4761}}, "generalization": {"56": {"stimulus": 16, "trial": 56, "rt": 1571, "response": "Alpha"}, "77": {"stimulus": 29, "trial": 77, "rt": 1441, "response": "Alpha"}, "54": {"stimulus": 69, "trial": 54, "rt": 1033, "response": "Beta"}, "42": {"stimulus": 1, "trial": 42, "rt": 1942, "response": "Alpha"}, "48": {"stimulus": 35, "trial": 48, "rt": 3555, "response": "Beta"}, "43": {"stimulus": 56, "trial": 43, "rt": 2177, "response": "Alpha"}, "60": {"stimulus": 61, "trial": 60, "rt": 2148, "response": "Beta"}, "61": {"stimulus": 2, "trial": 61, "rt": 1283, "response": "Alpha"}, "62": {"stimulus": 19, "trial": 62, "rt": 822, "response": "Alpha"}, "63": {"stimulus": 57, "trial": 63, "rt": 4278, "response": "Alpha"}, "64": {"stimulus": 17, "trial": 64, "rt": 2584, "response": "Beta"}, "49": {"stimulus": 15, "trial": 49, "rt": 1501, "response": "Alpha"}, "66": {"stimulus": 70, "trial": 66, "rt": 1269, "response": "Beta"}, "67": {"stimulus": 76, "trial": 67, "rt": 804, "response": "Beta"}, "68": {"stimulus": 75, "trial": 68, "rt": 768, "response": "Beta"}, "69": {"stimulus": 0, "trial": 69, "rt": 1792, "response": "Alpha"}, "80": {"stimulus": 52, "trial": 80, "rt": 1706, "response": "Alpha"}, "52": {"stimulus": 37, "trial": 52, "rt": 2315, "response": "Alpha"}, "53": {"stimulus": 78, "trial": 53, "rt": 1392, "response": "Beta"}, "24": {"stimulus": 5, "trial": 24, "rt": 807, "response": "Alpha"}, "25": {"stimulus": 41, "trial": 25, "rt": 980, "response": "Alpha"}, "26": {"stimulus": 73, "trial": 26, "rt": 1752, "response": "Beta"}, "27": {"stimulus": 74, "trial": 27, "rt": 822, "response": "Beta"}, "20": {"stimulus": 39, "trial": 20, "rt": 1645, "response": "Alpha"}, "21": {"stimulus": 3, "trial": 21, "rt": 950, "response": "Alpha"}, "22": {"stimulus": 65, "trial": 22, "rt": 4160, "response": "Beta"}, "23": {"stimulus": 33, "trial": 23, "rt": 1401, "response": "Alpha"}, "46": {"stimulus": 4, "trial": 46, "rt": 1212, "response": "Beta"}, "47": {"stimulus": 31, "trial": 47, "rt": 1655, "response": "Alpha"}, "44": {"stimulus": 58, "trial": 44, "rt": 2429, "response": "Alpha"}, "45": {"stimulus": 24, "trial": 45, "rt": 2344, "response": "Alpha"}, "28": {"stimulus": 14, "trial": 28, "rt": 1916, "response": "Alpha"}, "29": {"stimulus": 79, "trial": 29, "rt": 1551, "response": "Beta"}, "40": {"stimulus": 55, "trial": 40, "rt": 3322, "response": "Alpha"}, "41": {"stimulus": 45, "trial": 41, "rt": 1801, "response": "Alpha"}, "1": {"stimulus": 59, "trial": 1, "rt": 5726, "response": "Alpha"}, "0": {"stimulus": 30, "trial": 0, "rt": 3725, "response": "Alpha"}, "3": {"stimulus": 40, "trial": 3, "rt": 2214, "response": "Alpha"}, "2": {"stimulus": 23, "trial": 2, "rt": 1952, "response": "Alpha"}, "5": {"stimulus": 47, "trial": 5, "rt": 3105, "response": "Alpha"}, "4": {"stimulus": 18, "trial": 4, "rt": 2040, "response": "Alpha"}, "7": {"stimulus": 77, "trial": 7, "rt": 1510, "response": "Beta"}, "6": {"stimulus": 72, "trial": 6, "rt": 1585, "response": "Beta"}, "9": {"stimulus": 13, "trial": 9, "rt": 1867, "response": "Alpha"}, "8": {"stimulus": 43, "trial": 8, "rt": 1607, "response": "Alpha"}, "78": {"stimulus": 20, "trial": 78, "rt": 2044, "response": "Alpha"}, "51": {"stimulus": 38, "trial": 51, "rt": 2940, "response": "Alpha"}, "39": {"stimulus": 51, "trial": 39, "rt": 1585, "response": "Alpha"}, "65": {"stimulus": 53, "trial": 65, "rt": 3050, "response": "Alpha"}, "76": {"stimulus": 48, "trial": 76, "rt": 1596, "response": "Alpha"}, "75": {"stimulus": 63, "trial": 75, "rt": 1823, "response": "Beta"}, "38": {"stimulus": 54, "trial": 38, "rt": 3918, "response": "Alpha"}, "73": {"stimulus": 71, "trial": 73, "rt": 2025, "response": "Beta"}, "72": {"stimulus": 46, "trial": 72, "rt": 1597, "response": "Alpha"}, "71": {"stimulus": 68, "trial": 71, "rt": 1806, "response": "Beta"}, "70": {"stimulus": 60, "trial": 70, "rt": 3315, "response": "Alpha"}, "59": {"stimulus": 6, "trial": 59, "rt": 2853, "response": "Alpha"}, "79": {"stimulus": 80, "trial": 79, "rt": 1757, "response": "Beta"}, "58": {"stimulus": 11, "trial": 58, "rt": 1356, "response": "Alpha"}, "11": {"stimulus": 67, "trial": 11, "rt": 2027, "response": "Beta"}, "10": {"stimulus": 44, "trial": 10, "rt": 1930, "response": "Alpha"}, "13": {"stimulus": 36, "trial": 13, "rt": 1678, "response": "Alpha"}, "12": {"stimulus": 34, "trial": 12, "rt": 1817, "response": "Alpha"}, "15": {"stimulus": 50, "trial": 15, "rt": 1926, "response": "Alpha"}, "14": {"stimulus": 9, "trial": 14, "rt": 2741, "response": "Alpha"}, "17": {"stimulus": 7, "trial": 17, "rt": 6674, "response": "Alpha"}, "16": {"stimulus": 22, "trial": 16, "rt": 1705, "response": "Alpha"}, "19": {"stimulus": 66, "trial": 19, "rt": 4858, "response": "Beta"}, "18": {"stimulus": 62, "trial": 18, "rt": 2782, "response": "Beta"}, "31": {"stimulus": 42, "trial": 31, "rt": 1514, "response": "Alpha"}, "30": {"stimulus": 28, "trial": 30, "rt": 1509, "response": "Alpha"}, "37": {"stimulus": 32, "trial": 37, "rt": 1839, "response": "Alpha"}, "36": {"stimulus": 64, "trial": 36, "rt": 1269, "response": "Beta"}, "35": {"stimulus": 27, "trial": 35, "rt": 1571, "response": "Alpha"}, "34": {"stimulus": 8, "trial": 34, "rt": 2027, "response": "Alpha"}, "33": {"stimulus": 12, "trial": 33, "rt": 680, "response": "Alpha"}, "55": {"stimulus": 49, "trial": 55, "rt": 2089, "response": "Alpha"}, "74": {"stimulus": 26, "trial": 74, "rt": 1591, "response": "Alpha"}, "32": {"stimulus": 10, "trial": 32, "rt": 642, "response": "Alpha"}, "57": {"stimulus": 21, "trial": 57, "rt": 1637, "response": "Alpha"}, "50": {"stimulus": 25, "trial": 50, "rt": 1474, "response": "Alpha"}}}