{"generation": {"1": {"stimulus": 56, "trial": 1, "rt": 6293}, "0": {"stimulus": 65, "trial": 0, "rt": 10325}, "3": {"stimulus": 48, "trial": 3, "rt": 4547}, "2": {"stimulus": 60, "trial": 2, "rt": 4920}}, "info": {"finish": 1488822291612, "participant": 37, "exposed": true, "lab": false, "start": 1488821892788, "counterbalance": 3, "condition": "Row", "browser": {"platform": "Win32", "userAgent": "Mozilla/5.0 (Windows NT 6.1; Win64; x64) AppleWebKit/537.36 (KHTML, like Gecko) Chrome/56.0.2924.87 Safari/537.36"}}, "experiment": {"Paradigm": "TACL", "Stimuli": "Size-Color Squares", "Experiment": "Generating-Categories"}, "observation": {"11": {"stimulus": 16, "trial": 11, "rt": 1239}, "10": {"stimulus": 12, "trial": 10, "rt": 1291}, "1": {"stimulus": 16, "trial": 1, "rt": 3464}, "0": {"stimulus": 10, "trial": 0, "rt": 7504}, "3": {"stimulus": 12, "trial": 3, "rt": 1793}, "2": {"stimulus": 14, "trial": 2, "rt": 2558}, "5": {"stimulus": 10, "trial": 5, "rt": 1649}, "4": {"stimulus": 12, "trial": 4, "rt": 1749}, "7": {"stimulus": 14, "trial": 7, "rt": 1455}, "6": {"stimulus": 16, "trial": 6, "rt": 1354}, "9": {"stimulus": 14, "trial": 9, "rt": 1316}, "8": {"stimulus": 10, "trial": 8, "rt": 2087}}, "generalization": {"56": {"stimulus": 78, "trial": 56, "rt": 1242, "response": "Beta"}, "77": {"stimulus": 68, "trial": 77, "rt": 2156, "response": "Beta"}, "54": {"stimulus": 76, "trial": 54, "rt": 1465, "response": "Beta"}, "42": {"stimulus": 77, "trial": 42, "rt": 1601, "response": "Beta"}, "48": {"stimulus": 75, "trial": 48, "rt": 1052, "response": "Beta"}, "43": {"stimulus": 4, "trial": 43, "rt": 2146, "response": "Alpha"}, "60": {"stimulus": 79, "trial": 60, "rt": 1737, "response": "Beta"}, "61": {"stimulus": 32, "trial": 61, "rt": 1162, "response": "Beta"}, "62": {"stimulus": 42, "trial": 62, "rt": 1052, "response": "Alpha"}, "63": {"stimulus": 5, "trial": 63, "rt": 2962, "response": "Alpha"}, "64": {"stimulus": 31, "trial": 64, "rt": 1428, "response": "Beta"}, "49": {"stimulus": 19, "trial": 49, "rt": 937, "response": "Beta"}, "66": {"stimulus": 37, "trial": 66, "rt": 2618, "response": "Alpha"}, "67": {"stimulus": 1, "trial": 67, "rt": 2736, "response": "Alpha"}, "68": {"stimulus": 44, "trial": 68, "rt": 2164, "response": "Alpha"}, "69": {"stimulus": 67, "trial": 69, "rt": 1321, "response": "Beta"}, "80": {"stimulus": 21, "trial": 80, "rt": 1241, "response": "Alpha"}, "52": {"stimulus": 13, "trial": 52, "rt": 1296, "response": "Alpha"}, "53": {"stimulus": 0, "trial": 53, "rt": 2883, "response": "Alpha"}, "24": {"stimulus": 65, "trial": 24, "rt": 1176, "response": "Beta"}, "25": {"stimulus": 41, "trial": 25, "rt": 1361, "response": "Beta"}, "26": {"stimulus": 34, "trial": 26, "rt": 2553, "response": "Beta"}, "27": {"stimulus": 45, "trial": 27, "rt": 1297, "response": "Beta"}, "20": {"stimulus": 9, "trial": 20, "rt": 1570, "response": "Alpha"}, "21": {"stimulus": 39, "trial": 21, "rt": 1025, "response": "Beta"}, "22": {"stimulus": 12, "trial": 22, "rt": 1098, "response": "Alpha"}, "23": {"stimulus": 15, "trial": 23, "rt": 1950, "response": "Alpha"}, "46": {"stimulus": 8, "trial": 46, "rt": 3705, "response": "Alpha"}, "47": {"stimulus": 2, "trial": 47, "rt": 1832, "response": "Alpha"}, "44": {"stimulus": 3, "trial": 44, "rt": 1136, "response": "Alpha"}, "45": {"stimulus": 50, "trial": 45, "rt": 1605, "response": "Alpha"}, "28": {"stimulus": 57, "trial": 28, "rt": 1207, "response": "Beta"}, "29": {"stimulus": 80, "trial": 29, "rt": 1372, "response": "Beta"}, "40": {"stimulus": 33, "trial": 40, "rt": 1234, "response": "Alpha"}, "41": {"stimulus": 54, "trial": 41, "rt": 1283, "response": "Beta"}, "1": {"stimulus": 30, "trial": 1, "rt": 1139, "response": "Alpha"}, "0": {"stimulus": 60, "trial": 0, "rt": 1978, "response": "Beta"}, "3": {"stimulus": 51, "trial": 3, "rt": 1461, "response": "Beta"}, "2": {"stimulus": 53, "trial": 2, "rt": 940, "response": "Beta"}, "5": {"stimulus": 36, "trial": 5, "rt": 38526, "response": "Alpha"}, "4": {"stimulus": 48, "trial": 4, "rt": 1397, "response": "Beta"}, "7": {"stimulus": 69, "trial": 7, "rt": 1329, "response": "Beta"}, "6": {"stimulus": 47, "trial": 6, "rt": 1867, "response": "Alpha"}, "9": {"stimulus": 38, "trial": 9, "rt": 957, "response": "Beta"}, "8": {"stimulus": 25, "trial": 8, "rt": 1434, "response": "Alpha"}, "78": {"stimulus": 63, "trial": 78, "rt": 1052, "response": "Beta"}, "51": {"stimulus": 40, "trial": 51, "rt": 1331, "response": "Beta"}, "39": {"stimulus": 66, "trial": 39, "rt": 1310, "response": "Beta"}, "65": {"stimulus": 56, "trial": 65, "rt": 891, "response": "Alpha"}, "76": {"stimulus": 70, "trial": 76, "rt": 1680, "response": "Beta"}, "75": {"stimulus": 74, "trial": 75, "rt": 1221, "response": "Beta"}, "38": {"stimulus": 28, "trial": 38, "rt": 1975, "response": "Alpha"}, "73": {"stimulus": 7, "trial": 73, "rt": 1860, "response": "Alpha"}, "72": {"stimulus": 18, "trial": 72, "rt": 795, "response": "Alpha"}, "71": {"stimulus": 11, "trial": 71, "rt": 824, "response": "Beta"}, "70": {"stimulus": 72, "trial": 70, "rt": 132, "response": "Beta"}, "59": {"stimulus": 17, "trial": 59, "rt": 1546, "response": "Alpha"}, "79": {"stimulus": 14, "trial": 79, "rt": 1945, "response": "Alpha"}, "58": {"stimulus": 26, "trial": 58, "rt": 1535, "response": "Alpha"}, "11": {"stimulus": 6, "trial": 11, "rt": 7945, "response": "Alpha"}, "10": {"stimulus": 24, "trial": 10, "rt": 1030, "response": "Alpha"}, "13": {"stimulus": 61, "trial": 13, "rt": 1220, "response": "Beta"}, "12": {"stimulus": 64, "trial": 12, "rt": 1443, "response": "Beta"}, "15": {"stimulus": 20, "trial": 15, "rt": 1866, "response": "Alpha"}, "14": {"stimulus": 10, "trial": 14, "rt": 1513, "response": "Alpha"}, "17": {"stimulus": 27, "trial": 17, "rt": 858, "response": "Beta"}, "16": {"stimulus": 62, "trial": 16, "rt": 1584, "response": "Alpha"}, "19": {"stimulus": 59, "trial": 19, "rt": 1156, "response": "Beta"}, "18": {"stimulus": 23, "trial": 18, "rt": 2452, "response": "Alpha"}, "31": {"stimulus": 55, "trial": 31, "rt": 1148, "response": "Beta"}, "30": {"stimulus": 49, "trial": 30, "rt": 926, "response": "Beta"}, "37": {"stimulus": 73, "trial": 37, "rt": 1990, "response": "Beta"}, "36": {"stimulus": 52, "trial": 36, "rt": 1233, "response": "Beta"}, "35": {"stimulus": 43, "trial": 35, "rt": 1467, "response": "Beta"}, "34": {"stimulus": 46, "trial": 34, "rt": 1513, "response": "Beta"}, "33": {"stimulus": 29, "trial": 33, "rt": 1569, "response": "Alpha"}, "55": {"stimulus": 58, "trial": 55, "rt": 1041, "response": "Beta"}, "74": {"stimulus": 22, "trial": 74, "rt": 1579, "response": "Alpha"}, "32": {"stimulus": 16, "trial": 32, "rt": 1215, "response": "Alpha"}, "57": {"stimulus": 71, "trial": 57, "rt": 2253, "response": "Beta"}, "50": {"stimulus": 35, "trial": 50, "rt": 1386, "response": "Beta"}}}