{"generation": {"1": {"stimulus": 76, "trial": 1, "rt": 6551}, "0": {"stimulus": 73, "trial": 0, "rt": 17115}, "3": {"stimulus": 80, "trial": 3, "rt": 3329}, "2": {"stimulus": 79, "trial": 2, "rt": 3860}}, "info": {"finish": 1488822160049, "participant": 38, "exposed": true, "lab": false, "start": 1488821899565, "counterbalance": 7, "condition": "Row", "browser": {"platform": "Win32", "userAgent": "Mozilla/5.0 (Windows NT 10.0; Win64; x64) AppleWebKit/537.36 (KHTML, like Gecko) Chrome/56.0.2924.87 Safari/537.36"}}, "experiment": {"Paradigm": "TACL", "Stimuli": "Size-Color Squares", "Experiment": "Generating-Categories"}, "observation": {"11": {"stimulus": 12, "trial": 11, "rt": 911}, "10": {"stimulus": 14, "trial": 10, "rt": 958}, "1": {"stimulus": 12, "trial": 1, "rt": 1348}, "0": {"stimulus": 10, "trial": 0, "rt": 2113}, "3": {"stimulus": 16, "trial": 3, "rt": 1009}, "2": {"stimulus": 14, "trial": 2, "rt": 1006}, "5": {"stimulus": 12, "trial": 5, "rt": 1036}, "4": {"stimulus": 16, "trial": 4, "rt": 958}, "7": {"stimulus": 10, "trial": 7, "rt": 932}, "6": {"stimulus": 14, "trial": 6, "rt": 8487}, "9": {"stimulus": 16, "trial": 9, "rt": 1046}, "8": {"stimulus": 10, "trial": 8, "rt": 906}}, "generalization": {"56": {"stimulus": 64, "trial": 56, "rt": 445, "response": "Beta"}, "77": {"stimulus": 29, "trial": 77, "rt": 959, "response": "Alpha"}, "54": {"stimulus": 59, "trial": 54, "rt": 667, "response": "Beta"}, "42": {"stimulus": 63, "trial": 42, "rt": 856, "response": "Beta"}, "48": {"stimulus": 49, "trial": 48, "rt": 893, "response": "Beta"}, "43": {"stimulus": 78, "trial": 43, "rt": 482, "response": "Beta"}, "60": {"stimulus": 28, "trial": 60, "rt": 480, "response": "Alpha"}, "61": {"stimulus": 62, "trial": 61, "rt": 643, "response": "Beta"}, "62": {"stimulus": 14, "trial": 62, "rt": 1992, "response": "Alpha"}, "63": {"stimulus": 68, "trial": 63, "rt": 700, "response": "Beta"}, "64": {"stimulus": 80, "trial": 64, "rt": 804, "response": "Beta"}, "49": {"stimulus": 18, "trial": 49, "rt": 570, "response": "Alpha"}, "66": {"stimulus": 43, "trial": 66, "rt": 1611, "response": "Alpha"}, "67": {"stimulus": 8, "trial": 67, "rt": 7765, "response": "Alpha"}, "68": {"stimulus": 5, "trial": 68, "rt": 1877, "response": "Alpha"}, "69": {"stimulus": 36, "trial": 69, "rt": 939, "response": "Beta"}, "80": {"stimulus": 53, "trial": 80, "rt": 1269, "response": "Alpha"}, "52": {"stimulus": 11, "trial": 52, "rt": 843, "response": "Alpha"}, "53": {"stimulus": 6, "trial": 53, "rt": 856, "response": "Alpha"}, "24": {"stimulus": 69, "trial": 24, "rt": 646, "response": "Beta"}, "25": {"stimulus": 39, "trial": 25, "rt": 1270, "response": "Beta"}, "26": {"stimulus": 24, "trial": 26, "rt": 968, "response": "Alpha"}, "27": {"stimulus": 26, "trial": 27, "rt": 618, "response": "Alpha"}, "20": {"stimulus": 79, "trial": 20, "rt": 765, "response": "Beta"}, "21": {"stimulus": 35, "trial": 21, "rt": 1306, "response": "Alpha"}, "22": {"stimulus": 70, "trial": 22, "rt": 614, "response": "Beta"}, "23": {"stimulus": 71, "trial": 23, "rt": 554, "response": "Beta"}, "46": {"stimulus": 9, "trial": 46, "rt": 853, "response": "Alpha"}, "47": {"stimulus": 10, "trial": 47, "rt": 497, "response": "Alpha"}, "44": {"stimulus": 58, "trial": 44, "rt": 762, "response": "Beta"}, "45": {"stimulus": 54, "trial": 45, "rt": 555, "response": "Beta"}, "28": {"stimulus": 66, "trial": 28, "rt": 753, "response": "Beta"}, "29": {"stimulus": 15, "trial": 29, "rt": 910, "response": "Alpha"}, "40": {"stimulus": 52, "trial": 40, "rt": 671, "response": "Alpha"}, "41": {"stimulus": 40, "trial": 41, "rt": 543, "response": "Alpha"}, "1": {"stimulus": 33, "trial": 1, "rt": 1069, "response": "Alpha"}, "0": {"stimulus": 21, "trial": 0, "rt": 1584, "response": "Alpha"}, "3": {"stimulus": 72, "trial": 3, "rt": 529, "response": "Beta"}, "2": {"stimulus": 73, "trial": 2, "rt": 951, "response": "Beta"}, "5": {"stimulus": 19, "trial": 5, "rt": 920, "response": "Alpha"}, "4": {"stimulus": 76, "trial": 4, "rt": 549, "response": "Beta"}, "7": {"stimulus": 61, "trial": 7, "rt": 1144, "response": "Beta"}, "6": {"stimulus": 7, "trial": 6, "rt": 1747, "response": "Alpha"}, "9": {"stimulus": 38, "trial": 9, "rt": 1526, "response": "Alpha"}, "8": {"stimulus": 56, "trial": 8, "rt": 465, "response": "Beta"}, "78": {"stimulus": 34, "trial": 78, "rt": 1806, "response": "Alpha"}, "51": {"stimulus": 65, "trial": 51, "rt": 866, "response": "Beta"}, "39": {"stimulus": 46, "trial": 39, "rt": 1661, "response": "Alpha"}, "65": {"stimulus": 20, "trial": 65, "rt": 957, "response": "Alpha"}, "76": {"stimulus": 57, "trial": 76, "rt": 1145, "response": "Beta"}, "75": {"stimulus": 13, "trial": 75, "rt": 989, "response": "Alpha"}, "38": {"stimulus": 1, "trial": 38, "rt": 832, "response": "Alpha"}, "73": {"stimulus": 32, "trial": 73, "rt": 844, "response": "Alpha"}, "72": {"stimulus": 0, "trial": 72, "rt": 825, "response": "Alpha"}, "71": {"stimulus": 27, "trial": 71, "rt": 1082, "response": "Alpha"}, "70": {"stimulus": 50, "trial": 70, "rt": 701, "response": "Beta"}, "59": {"stimulus": 22, "trial": 59, "rt": 557, "response": "Alpha"}, "79": {"stimulus": 41, "trial": 79, "rt": 654, "response": "Alpha"}, "58": {"stimulus": 4, "trial": 58, "rt": 529, "response": "Alpha"}, "11": {"stimulus": 12, "trial": 11, "rt": 819, "response": "Beta"}, "10": {"stimulus": 51, "trial": 10, "rt": 762, "response": "Alpha"}, "13": {"stimulus": 37, "trial": 13, "rt": 6808, "response": "Beta"}, "12": {"stimulus": 2, "trial": 12, "rt": 1655, "response": "Alpha"}, "15": {"stimulus": 44, "trial": 15, "rt": 1045, "response": "Alpha"}, "14": {"stimulus": 74, "trial": 14, "rt": 745, "response": "Beta"}, "17": {"stimulus": 31, "trial": 17, "rt": 1336, "response": "Alpha"}, "16": {"stimulus": 55, "trial": 16, "rt": 3501, "response": "Beta"}, "19": {"stimulus": 16, "trial": 19, "rt": 673, "response": "Alpha"}, "18": {"stimulus": 30, "trial": 18, "rt": 677, "response": "Alpha"}, "31": {"stimulus": 25, "trial": 31, "rt": 25235, "response": "Alpha"}, "30": {"stimulus": 42, "trial": 30, "rt": 669, "response": "Beta"}, "37": {"stimulus": 77, "trial": 37, "rt": 732, "response": "Beta"}, "36": {"stimulus": 45, "trial": 36, "rt": 884, "response": "Beta"}, "35": {"stimulus": 48, "trial": 35, "rt": 748, "response": "Beta"}, "34": {"stimulus": 47, "trial": 34, "rt": 1020, "response": "Alpha"}, "33": {"stimulus": 67, "trial": 33, "rt": 731, "response": "Beta"}, "55": {"stimulus": 75, "trial": 55, "rt": 463, "response": "Beta"}, "74": {"stimulus": 60, "trial": 74, "rt": 823, "response": "Beta"}, "32": {"stimulus": 23, "trial": 32, "rt": 770, "response": "Alpha"}, "57": {"stimulus": 17, "trial": 57, "rt": 593, "response": "Alpha"}, "50": {"stimulus": 3, "trial": 50, "rt": 695, "response": "Alpha"}}}