{"generation": {"1": {"stimulus": 76, "trial": 1, "rt": 3885}, "0": {"stimulus": 75, "trial": 0, "rt": 5609}, "3": {"stimulus": 79, "trial": 3, "rt": 4542}, "2": {"stimulus": 74, "trial": 2, "rt": 4075}}, "info": {"finish": 1488822019337, "participant": 4, "exposed": true, "lab": false, "start": 1488821806270, "counterbalance": 5, "condition": "Row", "browser": {"platform": "Win32", "userAgent": "Mozilla/5.0 (Windows NT 6.1; WOW64) AppleWebKit/537.36 (KHTML, like Gecko) Chrome/56.0.2924.87 Safari/537.36 OPR/43.0.2442.1144"}}, "experiment": {"Paradigm": "TACL", "Stimuli": "Size-Color Squares", "Experiment": "Generating-Categories"}, "observation": {"11": {"stimulus": 16, "trial": 11, "rt": 962}, "10": {"stimulus": 12, "trial": 10, "rt": 833}, "1": {"stimulus": 14, "trial": 1, "rt": 1659}, "0": {"stimulus": 16, "trial": 0, "rt": 2972}, "3": {"stimulus": 10, "trial": 3, "rt": 1038}, "2": {"stimulus": 12, "trial": 2, "rt": 984}, "5": {"stimulus": 12, "trial": 5, "rt": 935}, "4": {"stimulus": 10, "trial": 4, "rt": 991}, "7": {"stimulus": 16, "trial": 7, "rt": 784}, "6": {"stimulus": 14, "trial": 6, "rt": 1242}, "9": {"stimulus": 14, "trial": 9, "rt": 1048}, "8": {"stimulus": 10, "trial": 8, "rt": 655}}, "generalization": {"56": {"stimulus": 57, "trial": 56, "rt": 786, "response": "Beta"}, "77": {"stimulus": 20, "trial": 77, "rt": 1267, "response": "Alpha"}, "54": {"stimulus": 24, "trial": 54, "rt": 606, "response": "Alpha"}, "42": {"stimulus": 73, "trial": 42, "rt": 630, "response": "Beta"}, "48": {"stimulus": 31, "trial": 48, "rt": 1812, "response": "Beta"}, "43": {"stimulus": 33, "trial": 43, "rt": 797, "response": "Alpha"}, "60": {"stimulus": 29, "trial": 60, "rt": 774, "response": "Beta"}, "61": {"stimulus": 12, "trial": 61, "rt": 770, "response": "Alpha"}, "62": {"stimulus": 69, "trial": 62, "rt": 758, "response": "Beta"}, "63": {"stimulus": 27, "trial": 63, "rt": 974, "response": "Beta"}, "64": {"stimulus": 48, "trial": 64, "rt": 778, "response": "Beta"}, "49": {"stimulus": 53, "trial": 49, "rt": 964, "response": "Beta"}, "66": {"stimulus": 30, "trial": 66, "rt": 538, "response": "Beta"}, "67": {"stimulus": 46, "trial": 67, "rt": 412, "response": "Beta"}, "68": {"stimulus": 45, "trial": 68, "rt": 484, "response": "Beta"}, "69": {"stimulus": 55, "trial": 69, "rt": 484, "response": "Beta"}, "80": {"stimulus": 76, "trial": 80, "rt": 889, "response": "Beta"}, "52": {"stimulus": 28, "trial": 52, "rt": 943, "response": "Alpha"}, "53": {"stimulus": 18, "trial": 53, "rt": 1638, "response": "Alpha"}, "24": {"stimulus": 71, "trial": 24, "rt": 518, "response": "Beta"}, "25": {"stimulus": 67, "trial": 25, "rt": 600, "response": "Beta"}, "26": {"stimulus": 36, "trial": 26, "rt": 843, "response": "Beta"}, "27": {"stimulus": 54, "trial": 27, "rt": 594, "response": "Beta"}, "20": {"stimulus": 47, "trial": 20, "rt": 707, "response": "Alpha"}, "21": {"stimulus": 70, "trial": 21, "rt": 1353, "response": "Alpha"}, "22": {"stimulus": 9, "trial": 22, "rt": 802, "response": "Alpha"}, "23": {"stimulus": 62, "trial": 23, "rt": 1028, "response": "Beta"}, "46": {"stimulus": 8, "trial": 46, "rt": 800, "response": "Alpha"}, "47": {"stimulus": 19, "trial": 47, "rt": 827, "response": "Beta"}, "44": {"stimulus": 79, "trial": 44, "rt": 551, "response": "Beta"}, "45": {"stimulus": 3, "trial": 45, "rt": 750, "response": "Alpha"}, "28": {"stimulus": 7, "trial": 28, "rt": 822, "response": "Alpha"}, "29": {"stimulus": 15, "trial": 29, "rt": 534, "response": "Alpha"}, "40": {"stimulus": 43, "trial": 40, "rt": 618, "response": "Beta"}, "41": {"stimulus": 16, "trial": 41, "rt": 847, "response": "Alpha"}, "1": {"stimulus": 5, "trial": 1, "rt": 502, "response": "Alpha"}, "0": {"stimulus": 23, "trial": 0, "rt": 1782, "response": "Alpha"}, "3": {"stimulus": 60, "trial": 3, "rt": 678, "response": "Beta"}, "2": {"stimulus": 49, "trial": 2, "rt": 1022, "response": "Beta"}, "5": {"stimulus": 56, "trial": 5, "rt": 870, "response": "Beta"}, "4": {"stimulus": 34, "trial": 4, "rt": 931, "response": "Alpha"}, "7": {"stimulus": 25, "trial": 7, "rt": 845, "response": "Alpha"}, "6": {"stimulus": 66, "trial": 6, "rt": 1985, "response": "Beta"}, "9": {"stimulus": 63, "trial": 9, "rt": 874, "response": "Beta"}, "8": {"stimulus": 6, "trial": 8, "rt": 498, "response": "Alpha"}, "78": {"stimulus": 11, "trial": 78, "rt": 695, "response": "Alpha"}, "51": {"stimulus": 58, "trial": 51, "rt": 527, "response": "Beta"}, "39": {"stimulus": 50, "trial": 39, "rt": 696, "response": "Beta"}, "65": {"stimulus": 72, "trial": 65, "rt": 492, "response": "Beta"}, "76": {"stimulus": 37, "trial": 76, "rt": 436, "response": "Beta"}, "75": {"stimulus": 59, "trial": 75, "rt": 473, "response": "Beta"}, "38": {"stimulus": 17, "trial": 38, "rt": 994, "response": "Alpha"}, "73": {"stimulus": 1, "trial": 73, "rt": 1287, "response": "Alpha"}, "72": {"stimulus": 44, "trial": 72, "rt": 446, "response": "Beta"}, "71": {"stimulus": 4, "trial": 71, "rt": 416, "response": "Beta"}, "70": {"stimulus": 74, "trial": 70, "rt": 414, "response": "Beta"}, "59": {"stimulus": 39, "trial": 59, "rt": 798, "response": "Beta"}, "79": {"stimulus": 10, "trial": 79, "rt": 1172, "response": "Alpha"}, "58": {"stimulus": 2, "trial": 58, "rt": 705, "response": "Alpha"}, "11": {"stimulus": 13, "trial": 11, "rt": 611, "response": "Alpha"}, "10": {"stimulus": 22, "trial": 10, "rt": 965, "response": "Alpha"}, "13": {"stimulus": 80, "trial": 13, "rt": 611, "response": "Beta"}, "12": {"stimulus": 65, "trial": 12, "rt": 837, "response": "Beta"}, "15": {"stimulus": 42, "trial": 15, "rt": 666, "response": "Beta"}, "14": {"stimulus": 0, "trial": 14, "rt": 1023, "response": "Alpha"}, "17": {"stimulus": 64, "trial": 17, "rt": 9573, "response": "Beta"}, "16": {"stimulus": 61, "trial": 16, "rt": 1193, "response": "Beta"}, "19": {"stimulus": 38, "trial": 19, "rt": 2271, "response": "Alpha"}, "18": {"stimulus": 14, "trial": 18, "rt": 583, "response": "Alpha"}, "31": {"stimulus": 21, "trial": 31, "rt": 1004, "response": "Alpha"}, "30": {"stimulus": 77, "trial": 30, "rt": 790, "response": "Beta"}, "37": {"stimulus": 51, "trial": 37, "rt": 595, "response": "Beta"}, "36": {"stimulus": 75, "trial": 36, "rt": 534, "response": "Beta"}, "35": {"stimulus": 41, "trial": 35, "rt": 762, "response": "Beta"}, "34": {"stimulus": 40, "trial": 34, "rt": 634, "response": "Beta"}, "33": {"stimulus": 68, "trial": 33, "rt": 564, "response": "Beta"}, "55": {"stimulus": 26, "trial": 55, "rt": 623, "response": "Alpha"}, "74": {"stimulus": 78, "trial": 74, "rt": 503, "response": "Beta"}, "32": {"stimulus": 52, "trial": 32, "rt": 974, "response": "Beta"}, "57": {"stimulus": 32, "trial": 57, "rt": 857, "response": "Beta"}, "50": {"stimulus": 35, "trial": 50, "rt": 841, "response": "Beta"}}}