{"generation": {"1": {"stimulus": 72, "trial": 1, "rt": 5959}, "0": {"stimulus": 77, "trial": 0, "rt": 11085}, "3": {"stimulus": 74, "trial": 3, "rt": 5281}, "2": {"stimulus": 76, "trial": 2, "rt": 3568}}, "info": {"participant": 40, "exposed": true, "lab": false, "start": 1488821910597, "counterbalance": 0, "condition": "Row", "browser": {"platform": "Win32", "userAgent": "Mozilla/5.0 (Windows NT 10.0; WOW64; rv:51.0) Gecko/20100101 Firefox/51.0"}}, "experiment": {"Paradigm": "TACL", "Stimuli": "Size-Color Squares", "Experiment": "Generating-Categories"}, "observation": {"11": {"stimulus": 12, "trial": 11, "rt": 1264}, "10": {"stimulus": 14, "trial": 10, "rt": 1015}, "1": {"stimulus": 10, "trial": 1, "rt": 1444}, "0": {"stimulus": 12, "trial": 0, "rt": 2263}, "3": {"stimulus": 14, "trial": 3, "rt": 1389}, "2": {"stimulus": 16, "trial": 2, "rt": 1203}, "5": {"stimulus": 14, "trial": 5, "rt": 1109}, "4": {"stimulus": 16, "trial": 4, "rt": 1139}, "7": {"stimulus": 10, "trial": 7, "rt": 1116}, "6": {"stimulus": 12, "trial": 6, "rt": 1117}, "9": {"stimulus": 10, "trial": 9, "rt": 1036}, "8": {"stimulus": 16, "trial": 8, "rt": 1046}}, "generalization": {"56": {"stimulus": 74, "trial": 56, "rt": 897, "response": "Beta"}, "77": {"stimulus": 28, "trial": 77, "rt": 664, "response": "Beta"}, "54": {"stimulus": 65, "trial": 54, "rt": 835, "response": "Beta"}, "42": {"stimulus": 19, "trial": 42, "rt": 1429, "response": "Beta"}, "48": {"stimulus": 23, "trial": 48, "rt": 950, "response": "Beta"}, "43": {"stimulus": 78, "trial": 43, "rt": 1047, "response": "Beta"}, "60": {"stimulus": 31, "trial": 60, "rt": 1007, "response": "Beta"}, "61": {"stimulus": 16, "trial": 61, "rt": 1133, "response": "Alpha"}, "62": {"stimulus": 73, "trial": 62, "rt": 1335, "response": "Beta"}, "63": {"stimulus": 75, "trial": 63, "rt": 1077, "response": "Beta"}, "64": {"stimulus": 44, "trial": 64, "rt": 2115, "response": "Beta"}, "49": {"stimulus": 61, "trial": 49, "rt": 851, "response": "Beta"}, "66": {"stimulus": 39, "trial": 66, "rt": 1007, "response": "Beta"}, "67": {"stimulus": 66, "trial": 67, "rt": 796, "response": "Beta"}, "68": {"stimulus": 6, "trial": 68, "rt": 1093, "response": "Alpha"}, "69": {"stimulus": 2, "trial": 69, "rt": 491, "response": "Alpha"}, "80": {"stimulus": 3, "trial": 80, "rt": 1209, "response": "Alpha"}, "52": {"stimulus": 14, "trial": 52, "rt": 1625, "response": "Alpha"}, "53": {"stimulus": 58, "trial": 53, "rt": 1037, "response": "Beta"}, "24": {"stimulus": 52, "trial": 24, "rt": 734, "response": "Beta"}, "25": {"stimulus": 53, "trial": 25, "rt": 718, "response": "Beta"}, "26": {"stimulus": 34, "trial": 26, "rt": 1351, "response": "Alpha"}, "27": {"stimulus": 8, "trial": 27, "rt": 782, "response": "Alpha"}, "20": {"stimulus": 41, "trial": 20, "rt": 1515, "response": "Beta"}, "21": {"stimulus": 30, "trial": 21, "rt": 1349, "response": "Alpha"}, "22": {"stimulus": 62, "trial": 22, "rt": 1187, "response": "Beta"}, "23": {"stimulus": 33, "trial": 23, "rt": 852, "response": "Beta"}, "46": {"stimulus": 51, "trial": 46, "rt": 1023, "response": "Beta"}, "47": {"stimulus": 27, "trial": 47, "rt": 695, "response": "Beta"}, "44": {"stimulus": 26, "trial": 44, "rt": 1631, "response": "Alpha"}, "45": {"stimulus": 0, "trial": 45, "rt": 561, "response": "Alpha"}, "28": {"stimulus": 68, "trial": 28, "rt": 1062, "response": "Beta"}, "29": {"stimulus": 21, "trial": 29, "rt": 1266, "response": "Alpha"}, "40": {"stimulus": 4, "trial": 40, "rt": 1741, "response": "Alpha"}, "41": {"stimulus": 32, "trial": 41, "rt": 1139, "response": "Beta"}, "1": {"stimulus": 9, "trial": 1, "rt": 515, "response": "Alpha"}, "0": {"stimulus": 18, "trial": 0, "rt": 2036, "response": "Alpha"}, "3": {"stimulus": 12, "trial": 3, "rt": 717, "response": "Alpha"}, "2": {"stimulus": 35, "trial": 2, "rt": 548, "response": "Alpha"}, "5": {"stimulus": 80, "trial": 5, "rt": 1265, "response": "Beta"}, "4": {"stimulus": 10, "trial": 4, "rt": 537, "response": "Alpha"}, "7": {"stimulus": 55, "trial": 7, "rt": 633, "response": "Beta"}, "6": {"stimulus": 54, "trial": 6, "rt": 922, "response": "Beta"}, "9": {"stimulus": 47, "trial": 9, "rt": 585, "response": "Beta"}, "8": {"stimulus": 59, "trial": 8, "rt": 529, "response": "Beta"}, "78": {"stimulus": 29, "trial": 78, "rt": 633, "response": "Beta"}, "51": {"stimulus": 63, "trial": 51, "rt": 976, "response": "Beta"}, "39": {"stimulus": 43, "trial": 39, "rt": 1031, "response": "Beta"}, "65": {"stimulus": 56, "trial": 65, "rt": 876, "response": "Beta"}, "76": {"stimulus": 22, "trial": 76, "rt": 874, "response": "Beta"}, "75": {"stimulus": 69, "trial": 75, "rt": 1070, "response": "Beta"}, "38": {"stimulus": 67, "trial": 38, "rt": 1016, "response": "Beta"}, "73": {"stimulus": 70, "trial": 73, "rt": 545, "response": "Beta"}, "72": {"stimulus": 46, "trial": 72, "rt": 507, "response": "Beta"}, "71": {"stimulus": 60, "trial": 71, "rt": 781, "response": "Beta"}, "70": {"stimulus": 37, "trial": 70, "rt": 1007, "response": "Beta"}, "59": {"stimulus": 25, "trial": 59, "rt": 2427, "response": "Beta"}, "79": {"stimulus": 64, "trial": 79, "rt": 2351, "response": "Beta"}, "58": {"stimulus": 38, "trial": 58, "rt": 1031, "response": "Beta"}, "11": {"stimulus": 40, "trial": 11, "rt": 1271, "response": "Beta"}, "10": {"stimulus": 7, "trial": 10, "rt": 1227, "response": "Alpha"}, "13": {"stimulus": 72, "trial": 13, "rt": 1040, "response": "Beta"}, "12": {"stimulus": 17, "trial": 12, "rt": 898, "response": "Alpha"}, "15": {"stimulus": 36, "trial": 15, "rt": 774, "response": "Beta"}, "14": {"stimulus": 42, "trial": 14, "rt": 1249, "response": "Beta"}, "17": {"stimulus": 24, "trial": 17, "rt": 852, "response": "Alpha"}, "16": {"stimulus": 20, "trial": 16, "rt": 1201, "response": "Alpha"}, "19": {"stimulus": 71, "trial": 19, "rt": 1532, "response": "Beta"}, "18": {"stimulus": 76, "trial": 18, "rt": 569, "response": "Alpha"}, "31": {"stimulus": 77, "trial": 31, "rt": 733, "response": "Beta"}, "30": {"stimulus": 48, "trial": 30, "rt": 1319, "response": "Beta"}, "37": {"stimulus": 11, "trial": 37, "rt": 786, "response": "Alpha"}, "36": {"stimulus": 1, "trial": 36, "rt": 1204, "response": "Alpha"}, "35": {"stimulus": 49, "trial": 35, "rt": 1234, "response": "Beta"}, "34": {"stimulus": 5, "trial": 34, "rt": 1124, "response": "Alpha"}, "33": {"stimulus": 79, "trial": 33, "rt": 788, "response": "Beta"}, "55": {"stimulus": 15, "trial": 55, "rt": 1039, "response": "Alpha"}, "74": {"stimulus": 13, "trial": 74, "rt": 1196, "response": "Alpha"}, "32": {"stimulus": 50, "trial": 32, "rt": 758, "response": "Beta"}, "57": {"stimulus": 45, "trial": 57, "rt": 750, "response": "Beta"}, "50": {"stimulus": 57, "trial": 50, "rt": 756, "response": "Beta"}}}56, "response": "Beta"}}}