{"generation": {"1": {"stimulus": 61, "trial": 1, "rt": 26464}, "0": {"stimulus": 80, "trial": 0, "rt": 56118}, "3": {"stimulus": 70, "trial": 3, "rt": 26015}, "2": {"stimulus": 79, "trial": 2, "rt": 16541}}, "info": {"finish": 1488822327919, "participant": 41, "exposed": true, "lab": false, "start": 1488821901559, "counterbalance": 7, "condition": "Cluster", "browser": {"platform": "Win32", "userAgent": "Mozilla/5.0 (Windows NT 10.0; WOW64; rv:51.0) Gecko/20100101 Firefox/51.0"}}, "experiment": {"Paradigm": "TACL", "Stimuli": "Size-Color Squares", "Experiment": "Generating-Categories"}, "observation": {"11": {"stimulus": 16, "trial": 11, "rt": 2545}, "10": {"stimulus": 34, "trial": 10, "rt": 2424}, "1": {"stimulus": 16, "trial": 1, "rt": 3902}, "0": {"stimulus": 32, "trial": 0, "rt": 9395}, "3": {"stimulus": 34, "trial": 3, "rt": 2786}, "2": {"stimulus": 14, "trial": 2, "rt": 2504}, "5": {"stimulus": 16, "trial": 5, "rt": 2749}, "4": {"stimulus": 14, "trial": 4, "rt": 2041}, "7": {"stimulus": 34, "trial": 7, "rt": 2611}, "6": {"stimulus": 32, "trial": 6, "rt": 5633}, "9": {"stimulus": 32, "trial": 9, "rt": 2722}, "8": {"stimulus": 14, "trial": 8, "rt": 2657}}, "generalization": {"56": {"stimulus": 5, "trial": 56, "rt": 519, "response": "Alpha"}, "77": {"stimulus": 44, "trial": 77, "rt": 822, "response": "Alpha"}, "54": {"stimulus": 22, "trial": 54, "rt": 907, "response": "Alpha"}, "42": {"stimulus": 30, "trial": 42, "rt": 1786, "response": "Alpha"}, "48": {"stimulus": 72, "trial": 48, "rt": 806, "response": "Beta"}, "43": {"stimulus": 10, "trial": 43, "rt": 706, "response": "Alpha"}, "60": {"stimulus": 59, "trial": 60, "rt": 993, "response": "Alpha"}, "61": {"stimulus": 8, "trial": 61, "rt": 1103, "response": "Alpha"}, "62": {"stimulus": 58, "trial": 62, "rt": 2207, "response": "Beta"}, "63": {"stimulus": 52, "trial": 63, "rt": 549, "response": "Beta"}, "64": {"stimulus": 63, "trial": 64, "rt": 582, "response": "Beta"}, "49": {"stimulus": 19, "trial": 49, "rt": 1539, "response": "Alpha"}, "66": {"stimulus": 7, "trial": 66, "rt": 8708, "response": "Alpha"}, "67": {"stimulus": 40, "trial": 67, "rt": 1737, "response": "Alpha"}, "68": {"stimulus": 73, "trial": 68, "rt": 1338, "response": "Beta"}, "69": {"stimulus": 48, "trial": 69, "rt": 835, "response": "Alpha"}, "80": {"stimulus": 57, "trial": 80, "rt": 1797, "response": "Alpha"}, "52": {"stimulus": 1, "trial": 52, "rt": 1654, "response": "Alpha"}, "53": {"stimulus": 26, "trial": 53, "rt": 604, "response": "Alpha"}, "24": {"stimulus": 38, "trial": 24, "rt": 750, "response": "Alpha"}, "25": {"stimulus": 35, "trial": 25, "rt": 698, "response": "Alpha"}, "26": {"stimulus": 47, "trial": 26, "rt": 3491, "response": "Alpha"}, "27": {"stimulus": 21, "trial": 27, "rt": 659, "response": "Alpha"}, "20": {"stimulus": 23, "trial": 20, "rt": 635, "response": "Alpha"}, "21": {"stimulus": 54, "trial": 21, "rt": 929, "response": "Beta"}, "22": {"stimulus": 68, "trial": 22, "rt": 533, "response": "Beta"}, "23": {"stimulus": 45, "trial": 23, "rt": 4793, "response": "Alpha"}, "46": {"stimulus": 4, "trial": 46, "rt": 1000, "response": "Alpha"}, "47": {"stimulus": 50, "trial": 47, "rt": 2292, "response": "Alpha"}, "44": {"stimulus": 11, "trial": 44, "rt": 707, "response": "Alpha"}, "45": {"stimulus": 60, "trial": 45, "rt": 1010, "response": "Beta"}, "28": {"stimulus": 70, "trial": 28, "rt": 1101, "response": "Beta"}, "29": {"stimulus": 25, "trial": 29, "rt": 1267, "response": "Alpha"}, "40": {"stimulus": 3, "trial": 40, "rt": 931, "response": "Alpha"}, "41": {"stimulus": 74, "trial": 41, "rt": 823, "response": "Beta"}, "1": {"stimulus": 78, "trial": 1, "rt": 1181, "response": "Beta"}, "0": {"stimulus": 33, "trial": 0, "rt": 4743, "response": "Alpha"}, "3": {"stimulus": 28, "trial": 3, "rt": 1311, "response": "Alpha"}, "2": {"stimulus": 49, "trial": 2, "rt": 1227, "response": "Alpha"}, "5": {"stimulus": 15, "trial": 5, "rt": 648, "response": "Alpha"}, "4": {"stimulus": 13, "trial": 4, "rt": 821, "response": "Alpha"}, "7": {"stimulus": 76, "trial": 7, "rt": 1047, "response": "Beta"}, "6": {"stimulus": 20, "trial": 6, "rt": 1235, "response": "Alpha"}, "9": {"stimulus": 17, "trial": 9, "rt": 1778, "response": "Alpha"}, "8": {"stimulus": 14, "trial": 8, "rt": 1156, "response": "Alpha"}, "78": {"stimulus": 66, "trial": 78, "rt": 1762, "response": "Alpha"}, "51": {"stimulus": 43, "trial": 51, "rt": 3127, "response": "Beta"}, "39": {"stimulus": 34, "trial": 39, "rt": 2807, "response": "Alpha"}, "65": {"stimulus": 46, "trial": 65, "rt": 1754, "response": "Alpha"}, "76": {"stimulus": 41, "trial": 76, "rt": 900, "response": "Alpha"}, "75": {"stimulus": 64, "trial": 75, "rt": 1195, "response": "Beta"}, "38": {"stimulus": 79, "trial": 38, "rt": 578, "response": "Beta"}, "73": {"stimulus": 75, "trial": 73, "rt": 1625, "response": "Beta"}, "72": {"stimulus": 18, "trial": 72, "rt": 932, "response": "Alpha"}, "71": {"stimulus": 51, "trial": 71, "rt": 1148, "response": "Alpha"}, "70": {"stimulus": 80, "trial": 70, "rt": 937, "response": "Beta"}, "59": {"stimulus": 42, "trial": 59, "rt": 1179, "response": "Alpha"}, "79": {"stimulus": 29, "trial": 79, "rt": 1203, "response": "Alpha"}, "58": {"stimulus": 31, "trial": 58, "rt": 970, "response": "Alpha"}, "11": {"stimulus": 24, "trial": 11, "rt": 852, "response": "Alpha"}, "10": {"stimulus": 53, "trial": 10, "rt": 2231, "response": "Alpha"}, "13": {"stimulus": 0, "trial": 13, "rt": 947, "response": "Alpha"}, "12": {"stimulus": 65, "trial": 12, "rt": 1297, "response": "Beta"}, "15": {"stimulus": 69, "trial": 15, "rt": 1109, "response": "Beta"}, "14": {"stimulus": 62, "trial": 14, "rt": 1609, "response": "Beta"}, "17": {"stimulus": 61, "trial": 17, "rt": 1803, "response": "Alpha"}, "16": {"stimulus": 39, "trial": 16, "rt": 1064, "response": "Alpha"}, "19": {"stimulus": 6, "trial": 19, "rt": 847, "response": "Alpha"}, "18": {"stimulus": 67, "trial": 18, "rt": 1878, "response": "Alpha"}, "31": {"stimulus": 32, "trial": 31, "rt": 1289, "response": "Alpha"}, "30": {"stimulus": 12, "trial": 30, "rt": 1017, "response": "Alpha"}, "37": {"stimulus": 71, "trial": 37, "rt": 847, "response": "Beta"}, "36": {"stimulus": 27, "trial": 36, "rt": 1039, "response": "Alpha"}, "35": {"stimulus": 9, "trial": 35, "rt": 1026, "response": "Alpha"}, "34": {"stimulus": 77, "trial": 34, "rt": 869, "response": "Beta"}, "33": {"stimulus": 37, "trial": 33, "rt": 1103, "response": "Alpha"}, "55": {"stimulus": 16, "trial": 55, "rt": 611, "response": "Alpha"}, "74": {"stimulus": 56, "trial": 74, "rt": 1358, "response": "Alpha"}, "32": {"stimulus": 2, "trial": 32, "rt": 619, "response": "Alpha"}, "57": {"stimulus": 55, "trial": 57, "rt": 946, "response": "Beta"}, "50": {"stimulus": 36, "trial": 50, "rt": 781, "response": "Alpha"}}}