{"generation": {"1": {"stimulus": 39, "trial": 1, "rt": 6186}, "0": {"stimulus": 67, "trial": 0, "rt": 51546}, "3": {"stimulus": 30, "trial": 3, "rt": 4199}, "2": {"stimulus": 40, "trial": 2, "rt": 15972}}, "info": {"finish": 1488822271729, "participant": 42, "exposed": true, "lab": false, "start": 1488821914997, "counterbalance": 5, "condition": "XOR", "browser": {"platform": "Win32", "userAgent": "Mozilla/5.0 (Windows NT 10.0; Win64; x64) AppleWebKit/537.36 (KHTML, like Gecko) Chrome/51.0.2704.79 Safari/537.36 Edge/14.14393"}}, "experiment": {"Paradigm": "TACL", "Stimuli": "Size-Color Squares", "Experiment": "Generating-Categories"}, "observation": {"11": {"stimulus": 0, "trial": 11, "rt": 1870}, "10": {"stimulus": 80, "trial": 10, "rt": 2289}, "1": {"stimulus": 0, "trial": 1, "rt": 4095}, "0": {"stimulus": 10, "trial": 0, "rt": 5612}, "3": {"stimulus": 70, "trial": 3, "rt": 2094}, "2": {"stimulus": 80, "trial": 2, "rt": 4745}, "5": {"stimulus": 80, "trial": 5, "rt": 3050}, "4": {"stimulus": 70, "trial": 4, "rt": 2692}, "7": {"stimulus": 10, "trial": 7, "rt": 2239}, "6": {"stimulus": 0, "trial": 6, "rt": 2212}, "9": {"stimulus": 70, "trial": 9, "rt": 2485}, "8": {"stimulus": 10, "trial": 8, "rt": 2393}}, "generalization": {"56": {"stimulus": 71, "trial": 56, "rt": 1042, "response": "Alpha"}, "77": {"stimulus": 33, "trial": 77, "rt": 1525, "response": "Beta"}, "54": {"stimulus": 4, "trial": 54, "rt": 1296, "response": "Beta"}, "42": {"stimulus": 54, "trial": 42, "rt": 1292, "response": "Alpha"}, "48": {"stimulus": 22, "trial": 48, "rt": 1407, "response": "Beta"}, "43": {"stimulus": 30, "trial": 43, "rt": 1401, "response": "Beta"}, "60": {"stimulus": 57, "trial": 60, "rt": 909, "response": "Beta"}, "61": {"stimulus": 5, "trial": 61, "rt": 1092, "response": "Beta"}, "62": {"stimulus": 28, "trial": 62, "rt": 1472, "response": "Beta"}, "63": {"stimulus": 10, "trial": 63, "rt": 1218, "response": "Alpha"}, "64": {"stimulus": 63, "trial": 64, "rt": 1302, "response": "Alpha"}, "49": {"stimulus": 21, "trial": 49, "rt": 810, "response": "Beta"}, "66": {"stimulus": 23, "trial": 66, "rt": 875, "response": "Beta"}, "67": {"stimulus": 56, "trial": 67, "rt": 795, "response": "Beta"}, "68": {"stimulus": 8, "trial": 68, "rt": 1844, "response": "Alpha"}, "69": {"stimulus": 50, "trial": 69, "rt": 1966, "response": "Beta"}, "80": {"stimulus": 1, "trial": 80, "rt": 972, "response": "Beta"}, "52": {"stimulus": 32, "trial": 52, "rt": 803, "response": "Beta"}, "53": {"stimulus": 35, "trial": 53, "rt": 1356, "response": "Alpha"}, "24": {"stimulus": 41, "trial": 24, "rt": 2201, "response": "Alpha"}, "25": {"stimulus": 60, "trial": 25, "rt": 955, "response": "Alpha"}, "26": {"stimulus": 37, "trial": 26, "rt": 3045, "response": "Beta"}, "27": {"stimulus": 46, "trial": 27, "rt": 1517, "response": "Alpha"}, "20": {"stimulus": 77, "trial": 20, "rt": 1109, "response": "Beta"}, "21": {"stimulus": 42, "trial": 21, "rt": 1178, "response": "Beta"}, "22": {"stimulus": 2, "trial": 22, "rt": 6066, "response": "Alpha"}, "23": {"stimulus": 6, "trial": 23, "rt": 1638, "response": "Alpha"}, "46": {"stimulus": 55, "trial": 46, "rt": 1762, "response": "Beta"}, "47": {"stimulus": 17, "trial": 47, "rt": 1200, "response": "Alpha"}, "44": {"stimulus": 24, "trial": 44, "rt": 1484, "response": "Beta"}, "45": {"stimulus": 75, "trial": 45, "rt": 914, "response": "Beta"}, "28": {"stimulus": 14, "trial": 28, "rt": 1450, "response": "Beta"}, "29": {"stimulus": 16, "trial": 29, "rt": 1412, "response": "Alpha"}, "40": {"stimulus": 7, "trial": 40, "rt": 837, "response": "Alpha"}, "41": {"stimulus": 68, "trial": 41, "rt": 1474, "response": "Beta"}, "1": {"stimulus": 25, "trial": 1, "rt": 1647, "response": "Alpha"}, "0": {"stimulus": 73, "trial": 0, "rt": 1873, "response": "Alpha"}, "3": {"stimulus": 53, "trial": 3, "rt": 1432, "response": "Alpha"}, "2": {"stimulus": 0, "trial": 2, "rt": 1429, "response": "Alpha"}, "5": {"stimulus": 18, "trial": 5, "rt": 1767, "response": "Alpha"}, "4": {"stimulus": 3, "trial": 4, "rt": 1666, "response": "Beta"}, "7": {"stimulus": 59, "trial": 7, "rt": 2117, "response": "Beta"}, "6": {"stimulus": 65, "trial": 6, "rt": 1201, "response": "Beta"}, "9": {"stimulus": 12, "trial": 9, "rt": 1107, "response": "Beta"}, "8": {"stimulus": 40, "trial": 8, "rt": 1551, "response": "Beta"}, "78": {"stimulus": 19, "trial": 78, "rt": 1426, "response": "Alpha"}, "51": {"stimulus": 47, "trial": 51, "rt": 917, "response": "Beta"}, "39": {"stimulus": 80, "trial": 39, "rt": 1193, "response": "Alpha"}, "65": {"stimulus": 29, "trial": 65, "rt": 1339, "response": "Beta"}, "76": {"stimulus": 61, "trial": 76, "rt": 868, "response": "Alpha"}, "75": {"stimulus": 26, "trial": 75, "rt": 1172, "response": "Alpha"}, "38": {"stimulus": 58, "trial": 38, "rt": 1331, "response": "Beta"}, "73": {"stimulus": 62, "trial": 73, "rt": 962, "response": "Alpha"}, "72": {"stimulus": 69, "trial": 72, "rt": 1760, "response": "Beta"}, "71": {"stimulus": 45, "trial": 71, "rt": 1239, "response": "Alpha"}, "70": {"stimulus": 67, "trial": 70, "rt": 791, "response": "Beta"}, "59": {"stimulus": 38, "trial": 59, "rt": 1171, "response": "Beta"}, "79": {"stimulus": 13, "trial": 79, "rt": 1434, "response": "Beta"}, "58": {"stimulus": 79, "trial": 58, "rt": 1154, "response": "Alpha"}, "11": {"stimulus": 9, "trial": 11, "rt": 1341, "response": "Alpha"}, "10": {"stimulus": 44, "trial": 10, "rt": 1784, "response": "Alpha"}, "13": {"stimulus": 11, "trial": 13, "rt": 1386, "response": "Beta"}, "12": {"stimulus": 51, "trial": 12, "rt": 2278, "response": "Beta"}, "15": {"stimulus": 52, "trial": 15, "rt": 1366, "response": "Alpha"}, "14": {"stimulus": 78, "trial": 14, "rt": 1488, "response": "Beta"}, "17": {"stimulus": 36, "trial": 17, "rt": 1234, "response": "Alpha"}, "16": {"stimulus": 34, "trial": 16, "rt": 1091, "response": "Alpha"}, "19": {"stimulus": 66, "trial": 19, "rt": 994, "response": "Beta"}, "18": {"stimulus": 31, "trial": 18, "rt": 1486, "response": "Beta"}, "31": {"stimulus": 48, "trial": 31, "rt": 854, "response": "Beta"}, "30": {"stimulus": 74, "trial": 30, "rt": 2861, "response": "Beta"}, "37": {"stimulus": 15, "trial": 37, "rt": 2885, "response": "Alpha"}, "36": {"stimulus": 49, "trial": 36, "rt": 1421, "response": "Beta"}, "35": {"stimulus": 43, "trial": 35, "rt": 772, "response": "Alpha"}, "34": {"stimulus": 70, "trial": 34, "rt": 951, "response": "Alpha"}, "33": {"stimulus": 64, "trial": 33, "rt": 1061, "response": "Alpha"}, "55": {"stimulus": 72, "trial": 55, "rt": 1268, "response": "Alpha"}, "74": {"stimulus": 76, "trial": 74, "rt": 1260, "response": "Beta"}, "32": {"stimulus": 27, "trial": 32, "rt": 1265, "response": "Alpha"}, "57": {"stimulus": 20, "trial": 57, "rt": 1407, "response": "Beta"}, "50": {"stimulus": 39, "trial": 50, "rt": 3114, "response": "Beta"}}}