{"generation": {"1": {"stimulus": 5, "trial": 1, "rt": 10865}, "0": {"stimulus": 8, "trial": 0, "rt": 32106}, "3": {"stimulus": 76, "trial": 3, "rt": 17051}, "2": {"stimulus": 72, "trial": 2, "rt": 20594}}, "info": {"participant": 43, "exposed": true, "lab": false, "start": 1488821913094, "counterbalance": 6, "condition": "XOR", "browser": {"platform": "Win32", "userAgent": "Mozilla/5.0 (Windows NT 6.3; WOW64; rv:51.0) Gecko/20100101 Firefox/51.0"}}, "experiment": {"Paradigm": "TACL", "Stimuli": "Size-Color Squares", "Experiment": "Generating-Categories"}, "observation": {"11": {"stimulus": 0, "trial": 11, "rt": 1899}, "10": {"stimulus": 70, "trial": 10, "rt": 2053}, "1": {"stimulus": 0, "trial": 1, "rt": 3362}, "0": {"stimulus": 70, "trial": 0, "rt": 4202}, "3": {"stimulus": 10, "trial": 3, "rt": 2996}, "2": {"stimulus": 80, "trial": 2, "rt": 3088}, "5": {"stimulus": 10, "trial": 5, "rt": 1931}, "4": {"stimulus": 0, "trial": 4, "rt": 2490}, "7": {"stimulus": 70, "trial": 7, "rt": 2115}, "6": {"stimulus": 80, "trial": 6, "rt": 2218}, "9": {"stimulus": 80, "trial": 9, "rt": 1862}, "8": {"stimulus": 10, "trial": 8, "rt": 2242}}, "generalization": {"56": {"stimulus": 61, "trial": 56, "rt": 1802, "response": "Alpha"}, "77": {"stimulus": 17, "trial": 77, "rt": 1306, "response": "Beta"}, "54": {"stimulus": 11, "trial": 54, "rt": 1843, "response": "Alpha"}, "42": {"stimulus": 30, "trial": 42, "rt": 3604, "response": "Beta"}, "48": {"stimulus": 7, "trial": 48, "rt": 1523, "response": "Beta"}, "43": {"stimulus": 57, "trial": 43, "rt": 2569, "response": "Beta"}, "60": {"stimulus": 56, "trial": 60, "rt": 1554, "response": "Beta"}, "61": {"stimulus": 23, "trial": 61, "rt": 2594, "response": "Beta"}, "62": {"stimulus": 73, "trial": 62, "rt": 2822, "response": "Beta"}, "63": {"stimulus": 71, "trial": 63, "rt": 1419, "response": "Alpha"}, "64": {"stimulus": 20, "trial": 64, "rt": 1642, "response": "Alpha"}, "49": {"stimulus": 46, "trial": 49, "rt": 3320, "response": "Beta"}, "66": {"stimulus": 4, "trial": 66, "rt": 4225, "response": "Beta"}, "67": {"stimulus": 14, "trial": 67, "rt": 1299, "response": "Beta"}, "68": {"stimulus": 25, "trial": 68, "rt": 1282, "response": "Beta"}, "69": {"stimulus": 79, "trial": 69, "rt": 1203, "response": "Alpha"}, "80": {"stimulus": 59, "trial": 80, "rt": 4637, "response": "Alpha"}, "52": {"stimulus": 45, "trial": 52, "rt": 5362, "response": "Alpha"}, "53": {"stimulus": 32, "trial": 53, "rt": 2218, "response": "Beta"}, "24": {"stimulus": 35, "trial": 24, "rt": 2203, "response": "Beta"}, "25": {"stimulus": 38, "trial": 25, "rt": 4257, "response": "Alpha"}, "26": {"stimulus": 52, "trial": 26, "rt": 2441, "response": "Alpha"}, "27": {"stimulus": 24, "trial": 27, "rt": 2754, "response": "Beta"}, "20": {"stimulus": 9, "trial": 20, "rt": 1418, "response": "Alpha"}, "21": {"stimulus": 47, "trial": 21, "rt": 3890, "response": "Beta"}, "22": {"stimulus": 19, "trial": 22, "rt": 1211, "response": "Alpha"}, "23": {"stimulus": 21, "trial": 23, "rt": 1361, "response": "Beta"}, "46": {"stimulus": 60, "trial": 46, "rt": 1258, "response": "Alpha"}, "47": {"stimulus": 75, "trial": 47, "rt": 2858, "response": "Beta"}, "44": {"stimulus": 51, "trial": 44, "rt": 1123, "response": "Alpha"}, "45": {"stimulus": 64, "trial": 45, "rt": 2155, "response": "Beta"}, "28": {"stimulus": 41, "trial": 28, "rt": 4106, "response": "Beta"}, "29": {"stimulus": 49, "trial": 29, "rt": 2131, "response": "Beta"}, "40": {"stimulus": 8, "trial": 40, "rt": 1474, "response": "Beta"}, "41": {"stimulus": 76, "trial": 41, "rt": 2890, "response": "Alpha"}, "1": {"stimulus": 74, "trial": 1, "rt": 3473, "response": "Beta"}, "0": {"stimulus": 22, "trial": 0, "rt": 5098, "response": "Beta"}, "3": {"stimulus": 36, "trial": 3, "rt": 2025, "response": "Alpha"}, "2": {"stimulus": 26, "trial": 2, "rt": 4307, "response": "Beta"}, "5": {"stimulus": 44, "trial": 5, "rt": 7010, "response": "Beta"}, "4": {"stimulus": 5, "trial": 4, "rt": 3146, "response": "Beta"}, "7": {"stimulus": 15, "trial": 7, "rt": 1486, "response": "Beta"}, "6": {"stimulus": 69, "trial": 6, "rt": 2203, "response": "Alpha"}, "9": {"stimulus": 10, "trial": 9, "rt": 3835, "response": "Alpha"}, "8": {"stimulus": 43, "trial": 8, "rt": 3269, "response": "Alpha"}, "78": {"stimulus": 27, "trial": 78, "rt": 1868, "response": "Alpha"}, "51": {"stimulus": 18, "trial": 51, "rt": 1130, "response": "Alpha"}, "39": {"stimulus": 42, "trial": 39, "rt": 4314, "response": "Alpha"}, "65": {"stimulus": 54, "trial": 65, "rt": 1283, "response": "Beta"}, "76": {"stimulus": 29, "trial": 76, "rt": 2307, "response": "Alpha"}, "75": {"stimulus": 50, "trial": 75, "rt": 2173, "response": "Beta"}, "38": {"stimulus": 78, "trial": 38, "rt": 1714, "response": "Alpha"}, "73": {"stimulus": 12, "trial": 73, "rt": 1618, "response": "Beta"}, "72": {"stimulus": 0, "trial": 72, "rt": 1170, "response": "Alpha"}, "71": {"stimulus": 70, "trial": 71, "rt": 914, "response": "Alpha"}, "70": {"stimulus": 34, "trial": 70, "rt": 2506, "response": "Beta"}, "59": {"stimulus": 58, "trial": 59, "rt": 1690, "response": "Alpha"}, "79": {"stimulus": 40, "trial": 79, "rt": 1490, "response": "Beta"}, "58": {"stimulus": 6, "trial": 58, "rt": 1579, "response": "Beta"}, "11": {"stimulus": 62, "trial": 11, "rt": 1874, "response": "Alpha"}, "10": {"stimulus": 65, "trial": 10, "rt": 1809, "response": "Beta"}, "13": {"stimulus": 31, "trial": 13, "rt": 8882, "response": "Beta"}, "12": {"stimulus": 80, "trial": 12, "rt": 1354, "response": "Alpha"}, "15": {"stimulus": 3, "trial": 15, "rt": 2074, "response": "Beta"}, "14": {"stimulus": 68, "trial": 14, "rt": 1986, "response": "Alpha"}, "17": {"stimulus": 53, "trial": 17, "rt": 1546, "response": "Alpha"}, "16": {"stimulus": 55, "trial": 16, "rt": 2434, "response": "Beta"}, "19": {"stimulus": 66, "trial": 19, "rt": 1969, "response": "Beta"}, "18": {"stimulus": 37, "trial": 18, "rt": 4794, "response": "Alpha"}, "31": {"stimulus": 16, "trial": 31, "rt": 1387, "response": "Beta"}, "30": {"stimulus": 63, "trial": 30, "rt": 2146, "response": "Beta"}, "37": {"stimulus": 39, "trial": 37, "rt": 2193, "response": "Beta"}, "36": {"stimulus": 2, "trial": 36, "rt": 1618, "response": "Alpha"}, "35": {"stimulus": 33, "trial": 35, "rt": 1946, "response": "Beta"}, "34": {"stimulus": 28, "trial": 34, "rt": 1393, "response": "Alpha"}, "33": {"stimulus": 13, "trial": 33, "rt": 1757, "response": "Beta"}, "55": {"stimulus": 72, "trial": 55, "rt": 1331, "response": "Beta"}, "74": {"stimulus": 77, "trial": 74, "rt": 2007, "response": "Beta"}, "32": {"stimulus": 67, "trial": 32, "rt": 3010, "response": "Alpha"}, "57": {"stimulus": 1, "trial": 57, "rt": 1232, "response": "Alpha"}, "50": {"stimulus": 48, "trial": 50, "rt": 1743, "response": "Beta"}}}