{"generation": {"1": {"stimulus": 72, "trial": 1, "rt": 28232}, "0": {"stimulus": 0, "trial": 0, "rt": 11888}, "3": {"stimulus": 1, "trial": 3, "rt": 12247}, "2": {"stimulus": 36, "trial": 2, "rt": 4191}}, "info": {"finish": 1488822199001, "participant": 45, "exposed": true, "lab": false, "start": 1488821910105, "counterbalance": 7, "condition": "Cluster", "browser": {"platform": "Win32", "userAgent": "Mozilla/5.0 (Windows NT 6.1; rv:51.0) Gecko/20100101 Firefox/51.0"}}, "experiment": {"Paradigm": "TACL", "Stimuli": "Size-Color Squares", "Experiment": "Generating-Categories"}, "observation": {"11": {"stimulus": 34, "trial": 11, "rt": 1592}, "10": {"stimulus": 16, "trial": 10, "rt": 1570}, "1": {"stimulus": 14, "trial": 1, "rt": 3605}, "0": {"stimulus": 34, "trial": 0, "rt": 3770}, "3": {"stimulus": 32, "trial": 3, "rt": 1315}, "2": {"stimulus": 16, "trial": 2, "rt": 1706}, "5": {"stimulus": 32, "trial": 5, "rt": 1187}, "4": {"stimulus": 34, "trial": 4, "rt": 1631}, "7": {"stimulus": 16, "trial": 7, "rt": 1337}, "6": {"stimulus": 14, "trial": 6, "rt": 1307}, "9": {"stimulus": 14, "trial": 9, "rt": 1324}, "8": {"stimulus": 32, "trial": 8, "rt": 1600}}, "generalization": {"56": {"stimulus": 80, "trial": 56, "rt": 595, "response": "Beta"}, "77": {"stimulus": 10, "trial": 77, "rt": 526, "response": "Alpha"}, "54": {"stimulus": 3, "trial": 54, "rt": 575, "response": "Alpha"}, "42": {"stimulus": 59, "trial": 42, "rt": 2089, "response": "Beta"}, "48": {"stimulus": 68, "trial": 48, "rt": 501, "response": "Beta"}, "43": {"stimulus": 57, "trial": 43, "rt": 793, "response": "Beta"}, "60": {"stimulus": 66, "trial": 60, "rt": 883, "response": "Beta"}, "61": {"stimulus": 23, "trial": 61, "rt": 667, "response": "Alpha"}, "62": {"stimulus": 71, "trial": 62, "rt": 771, "response": "Beta"}, "63": {"stimulus": 9, "trial": 63, "rt": 684, "response": "Alpha"}, "64": {"stimulus": 35, "trial": 64, "rt": 555, "response": "Alpha"}, "49": {"stimulus": 62, "trial": 49, "rt": 1027, "response": "Beta"}, "66": {"stimulus": 13, "trial": 66, "rt": 579, "response": "Alpha"}, "67": {"stimulus": 69, "trial": 67, "rt": 835, "response": "Beta"}, "68": {"stimulus": 34, "trial": 68, "rt": 840, "response": "Alpha"}, "69": {"stimulus": 0, "trial": 69, "rt": 587, "response": "Alpha"}, "80": {"stimulus": 39, "trial": 80, "rt": 1459, "response": "Alpha"}, "52": {"stimulus": 4, "trial": 52, "rt": 646, "response": "Alpha"}, "53": {"stimulus": 7, "trial": 53, "rt": 595, "response": "Alpha"}, "24": {"stimulus": 5, "trial": 24, "rt": 785, "response": "Alpha"}, "25": {"stimulus": 47, "trial": 25, "rt": 1880, "response": "Beta"}, "26": {"stimulus": 18, "trial": 26, "rt": 761, "response": "Alpha"}, "27": {"stimulus": 51, "trial": 27, "rt": 1842, "response": "Alpha"}, "20": {"stimulus": 52, "trial": 20, "rt": 810, "response": "Beta"}, "21": {"stimulus": 46, "trial": 21, "rt": 1667, "response": "Beta"}, "22": {"stimulus": 36, "trial": 22, "rt": 972, "response": "Beta"}, "23": {"stimulus": 38, "trial": 23, "rt": 2276, "response": "Beta"}, "46": {"stimulus": 74, "trial": 46, "rt": 823, "response": "Beta"}, "47": {"stimulus": 56, "trial": 47, "rt": 586, "response": "Beta"}, "44": {"stimulus": 75, "trial": 44, "rt": 714, "response": "Beta"}, "45": {"stimulus": 28, "trial": 45, "rt": 629, "response": "Alpha"}, "28": {"stimulus": 24, "trial": 28, "rt": 650, "response": "Alpha"}, "29": {"stimulus": 76, "trial": 29, "rt": 941, "response": "Beta"}, "40": {"stimulus": 73, "trial": 40, "rt": 844, "response": "Beta"}, "41": {"stimulus": 11, "trial": 41, "rt": 836, "response": "Alpha"}, "1": {"stimulus": 17, "trial": 1, "rt": 15201, "response": "Beta"}, "0": {"stimulus": 70, "trial": 0, "rt": 5860, "response": "Alpha"}, "3": {"stimulus": 40, "trial": 3, "rt": 1553, "response": "Alpha"}, "2": {"stimulus": 53, "trial": 2, "rt": 1562, "response": "Alpha"}, "5": {"stimulus": 55, "trial": 5, "rt": 859, "response": "Beta"}, "4": {"stimulus": 2, "trial": 4, "rt": 5481, "response": "Alpha"}, "7": {"stimulus": 37, "trial": 7, "rt": 4245, "response": "Beta"}, "6": {"stimulus": 42, "trial": 6, "rt": 3048, "response": "Beta"}, "9": {"stimulus": 32, "trial": 9, "rt": 707, "response": "Alpha"}, "8": {"stimulus": 19, "trial": 8, "rt": 809, "response": "Alpha"}, "78": {"stimulus": 25, "trial": 78, "rt": 833, "response": "Alpha"}, "51": {"stimulus": 26, "trial": 51, "rt": 686, "response": "Alpha"}, "39": {"stimulus": 16, "trial": 39, "rt": 857, "response": "Alpha"}, "65": {"stimulus": 44, "trial": 65, "rt": 529, "response": "Alpha"}, "76": {"stimulus": 1, "trial": 76, "rt": 831, "response": "Alpha"}, "75": {"stimulus": 49, "trial": 75, "rt": 594, "response": "Beta"}, "38": {"stimulus": 78, "trial": 38, "rt": 890, "response": "Beta"}, "73": {"stimulus": 15, "trial": 73, "rt": 527, "response": "Alpha"}, "72": {"stimulus": 6, "trial": 72, "rt": 569, "response": "Alpha"}, "71": {"stimulus": 43, "trial": 71, "rt": 2452, "response": "Alpha"}, "70": {"stimulus": 77, "trial": 70, "rt": 796, "response": "Beta"}, "59": {"stimulus": 31, "trial": 59, "rt": 841, "response": "Alpha"}, "79": {"stimulus": 67, "trial": 79, "rt": 849, "response": "Beta"}, "58": {"stimulus": 64, "trial": 58, "rt": 524, "response": "Beta"}, "11": {"stimulus": 21, "trial": 11, "rt": 912, "response": "Alpha"}, "10": {"stimulus": 29, "trial": 10, "rt": 1004, "response": "Alpha"}, "13": {"stimulus": 65, "trial": 13, "rt": 695, "response": "Beta"}, "12": {"stimulus": 48, "trial": 12, "rt": 924, "response": "Beta"}, "15": {"stimulus": 61, "trial": 15, "rt": 1273, "response": "Beta"}, "14": {"stimulus": 33, "trial": 14, "rt": 1029, "response": "Alpha"}, "17": {"stimulus": 8, "trial": 17, "rt": 780, "response": "Alpha"}, "16": {"stimulus": 12, "trial": 16, "rt": 810, "response": "Alpha"}, "19": {"stimulus": 30, "trial": 19, "rt": 778, "response": "Alpha"}, "18": {"stimulus": 22, "trial": 18, "rt": 899, "response": "Alpha"}, "31": {"stimulus": 14, "trial": 31, "rt": 775, "response": "Alpha"}, "30": {"stimulus": 54, "trial": 30, "rt": 644, "response": "Beta"}, "37": {"stimulus": 41, "trial": 37, "rt": 944, "response": "Alpha"}, "36": {"stimulus": 50, "trial": 36, "rt": 1484, "response": "Alpha"}, "35": {"stimulus": 20, "trial": 35, "rt": 683, "response": "Alpha"}, "34": {"stimulus": 72, "trial": 34, "rt": 570, "response": "Beta"}, "33": {"stimulus": 60, "trial": 33, "rt": 963, "response": "Beta"}, "55": {"stimulus": 79, "trial": 55, "rt": 802, "response": "Beta"}, "74": {"stimulus": 63, "trial": 74, "rt": 804, "response": "Beta"}, "32": {"stimulus": 27, "trial": 32, "rt": 649, "response": "Alpha"}, "57": {"stimulus": 58, "trial": 57, "rt": 578, "response": "Beta"}, "50": {"stimulus": 45, "trial": 50, "rt": 925, "response": "Alpha"}}}