{"generation": {"1": {"stimulus": 72, "trial": 1, "rt": 4520}, "0": {"stimulus": 8, "trial": 0, "rt": 16634}, "3": {"stimulus": 14, "trial": 3, "rt": 5418}, "2": {"stimulus": 48, "trial": 2, "rt": 5963}}, "info": {"finish": 1488822129713, "participant": 46, "exposed": true, "lab": false, "start": 1488821920895, "counterbalance": 6, "condition": "XOR", "browser": {"platform": "MacIntel", "userAgent": "Mozilla/5.0 (Macintosh; Intel Mac OS X 10_12_3) AppleWebKit/537.36 (KHTML, like Gecko) Chrome/56.0.2924.87 Safari/537.36"}}, "experiment": {"Paradigm": "TACL", "Stimuli": "Size-Color Squares", "Experiment": "Generating-Categories"}, "observation": {"11": {"stimulus": 80, "trial": 11, "rt": 738}, "10": {"stimulus": 10, "trial": 10, "rt": 930}, "1": {"stimulus": 0, "trial": 1, "rt": 1163}, "0": {"stimulus": 70, "trial": 0, "rt": 3185}, "3": {"stimulus": 10, "trial": 3, "rt": 1010}, "2": {"stimulus": 80, "trial": 2, "rt": 1130}, "5": {"stimulus": 80, "trial": 5, "rt": 937}, "4": {"stimulus": 0, "trial": 4, "rt": 954}, "7": {"stimulus": 70, "trial": 7, "rt": 1108}, "6": {"stimulus": 10, "trial": 6, "rt": 915}, "9": {"stimulus": 0, "trial": 9, "rt": 971}, "8": {"stimulus": 70, "trial": 8, "rt": 680}}, "generalization": {"56": {"stimulus": 5, "trial": 56, "rt": 1137, "response": "Beta"}, "77": {"stimulus": 61, "trial": 77, "rt": 1347, "response": "Beta"}, "54": {"stimulus": 46, "trial": 54, "rt": 1114, "response": "Beta"}, "42": {"stimulus": 24, "trial": 42, "rt": 1186, "response": "Beta"}, "48": {"stimulus": 19, "trial": 48, "rt": 1163, "response": "Beta"}, "43": {"stimulus": 7, "trial": 43, "rt": 899, "response": "Beta"}, "60": {"stimulus": 55, "trial": 60, "rt": 1043, "response": "Beta"}, "61": {"stimulus": 3, "trial": 61, "rt": 1306, "response": "Beta"}, "62": {"stimulus": 58, "trial": 62, "rt": 1250, "response": "Alpha"}, "63": {"stimulus": 57, "trial": 63, "rt": 794, "response": "Alpha"}, "64": {"stimulus": 69, "trial": 64, "rt": 826, "response": "Alpha"}, "49": {"stimulus": 4, "trial": 49, "rt": 954, "response": "Beta"}, "66": {"stimulus": 44, "trial": 66, "rt": 578, "response": "Beta"}, "67": {"stimulus": 79, "trial": 67, "rt": 858, "response": "Beta"}, "68": {"stimulus": 18, "trial": 68, "rt": 738, "response": "Alpha"}, "69": {"stimulus": 50, "trial": 69, "rt": 794, "response": "Beta"}, "80": {"stimulus": 15, "trial": 80, "rt": 795, "response": "Beta"}, "52": {"stimulus": 9, "trial": 52, "rt": 1620, "response": "Beta"}, "53": {"stimulus": 22, "trial": 53, "rt": 955, "response": "Beta"}, "24": {"stimulus": 14, "trial": 24, "rt": 2202, "response": "Beta"}, "25": {"stimulus": 0, "trial": 25, "rt": 1243, "response": "Alpha"}, "26": {"stimulus": 59, "trial": 26, "rt": 1746, "response": "Alpha"}, "27": {"stimulus": 12, "trial": 27, "rt": 810, "response": "Beta"}, "20": {"stimulus": 72, "trial": 20, "rt": 3418, "response": "Beta"}, "21": {"stimulus": 73, "trial": 21, "rt": 835, "response": "Beta"}, "22": {"stimulus": 26, "trial": 22, "rt": 1931, "response": "Beta"}, "23": {"stimulus": 29, "trial": 23, "rt": 1091, "response": "Alpha"}, "46": {"stimulus": 21, "trial": 46, "rt": 1027, "response": "Beta"}, "47": {"stimulus": 35, "trial": 47, "rt": 2051, "response": "Alpha"}, "44": {"stimulus": 64, "trial": 44, "rt": 970, "response": "Beta"}, "45": {"stimulus": 36, "trial": 45, "rt": 818, "response": "Beta"}, "28": {"stimulus": 27, "trial": 28, "rt": 1875, "response": "Beta"}, "29": {"stimulus": 42, "trial": 29, "rt": 955, "response": "Beta"}, "40": {"stimulus": 20, "trial": 40, "rt": 1434, "response": "Beta"}, "41": {"stimulus": 30, "trial": 41, "rt": 810, "response": "Beta"}, "1": {"stimulus": 38, "trial": 1, "rt": 2011, "response": "Beta"}, "0": {"stimulus": 6, "trial": 0, "rt": 2097, "response": "Beta"}, "3": {"stimulus": 52, "trial": 3, "rt": 2578, "response": "Beta"}, "2": {"stimulus": 54, "trial": 2, "rt": 1107, "response": "Beta"}, "5": {"stimulus": 76, "trial": 5, "rt": 1051, "response": "Alpha"}, "4": {"stimulus": 32, "trial": 4, "rt": 1123, "response": "Beta"}, "7": {"stimulus": 34, "trial": 7, "rt": 980, "response": "Beta"}, "6": {"stimulus": 28, "trial": 6, "rt": 1106, "response": "Alpha"}, "9": {"stimulus": 63, "trial": 9, "rt": 971, "response": "Beta"}, "8": {"stimulus": 51, "trial": 8, "rt": 978, "response": "Beta"}, "78": {"stimulus": 43, "trial": 78, "rt": 667, "response": "Beta"}, "51": {"stimulus": 62, "trial": 51, "rt": 841, "response": "Beta"}, "39": {"stimulus": 45, "trial": 39, "rt": 1203, "response": "Beta"}, "65": {"stimulus": 40, "trial": 65, "rt": 1042, "response": "Beta"}, "76": {"stimulus": 39, "trial": 76, "rt": 625, "response": "Beta"}, "75": {"stimulus": 49, "trial": 75, "rt": 802, "response": "Beta"}, "38": {"stimulus": 47, "trial": 38, "rt": 779, "response": "Beta"}, "73": {"stimulus": 75, "trial": 73, "rt": 2227, "response": "Beta"}, "72": {"stimulus": 41, "trial": 72, "rt": 898, "response": "Beta"}, "71": {"stimulus": 13, "trial": 71, "rt": 962, "response": "Beta"}, "70": {"stimulus": 77, "trial": 70, "rt": 810, "response": "Alpha"}, "59": {"stimulus": 23, "trial": 59, "rt": 738, "response": "Beta"}, "79": {"stimulus": 60, "trial": 79, "rt": 883, "response": "Alpha"}, "58": {"stimulus": 70, "trial": 58, "rt": 906, "response": "Alpha"}, "11": {"stimulus": 10, "trial": 11, "rt": 1619, "response": "Alpha"}, "10": {"stimulus": 66, "trial": 10, "rt": 737, "response": "Alpha"}, "13": {"stimulus": 16, "trial": 13, "rt": 2259, "response": "Beta"}, "12": {"stimulus": 1, "trial": 12, "rt": 1330, "response": "Alpha"}, "15": {"stimulus": 33, "trial": 15, "rt": 1066, "response": "Beta"}, "14": {"stimulus": 68, "trial": 14, "rt": 2090, "response": "Beta"}, "17": {"stimulus": 8, "trial": 17, "rt": 1426, "response": "Beta"}, "16": {"stimulus": 53, "trial": 16, "rt": 1299, "response": "Beta"}, "19": {"stimulus": 37, "trial": 19, "rt": 1267, "response": "Beta"}, "18": {"stimulus": 48, "trial": 18, "rt": 810, "response": "Alpha"}, "31": {"stimulus": 2, "trial": 31, "rt": 962, "response": "Beta"}, "30": {"stimulus": 31, "trial": 30, "rt": 1098, "response": "Beta"}, "37": {"stimulus": 78, "trial": 37, "rt": 947, "response": "Alpha"}, "36": {"stimulus": 25, "trial": 36, "rt": 1034, "response": "Beta"}, "35": {"stimulus": 65, "trial": 35, "rt": 1003, "response": "Beta"}, "34": {"stimulus": 80, "trial": 34, "rt": 1049, "response": "Alpha"}, "33": {"stimulus": 56, "trial": 33, "rt": 1227, "response": "Beta"}, "55": {"stimulus": 74, "trial": 55, "rt": 882, "response": "Alpha"}, "74": {"stimulus": 71, "trial": 74, "rt": 1035, "response": "Beta"}, "32": {"stimulus": 17, "trial": 32, "rt": 1155, "response": "Beta"}, "57": {"stimulus": 11, "trial": 57, "rt": 1138, "response": "Beta"}, "50": {"stimulus": 67, "trial": 50, "rt": 1347, "response": "Alpha"}}}