{"generation": {"1": {"stimulus": 55, "trial": 1, "rt": 11908}, "0": {"stimulus": 27, "trial": 0, "rt": 20429}, "3": {"stimulus": 45, "trial": 3, "rt": 13932}, "2": {"stimulus": 19, "trial": 2, "rt": 10685}}, "info": {"finish": 1488822259687, "participant": 48, "exposed": true, "lab": false, "start": 1488821922854, "counterbalance": 4, "condition": "Cluster", "browser": {"platform": "MacIntel", "userAgent": "Mozilla/5.0 (Macintosh; Intel Mac OS X 10.11; rv:51.0) Gecko/20100101 Firefox/51.0"}}, "experiment": {"Paradigm": "TACL", "Stimuli": "Size-Color Squares", "Experiment": "Generating-Categories"}, "observation": {"11": {"stimulus": 34, "trial": 11, "rt": 3080}, "10": {"stimulus": 16, "trial": 10, "rt": 3126}, "1": {"stimulus": 14, "trial": 1, "rt": 4210}, "0": {"stimulus": 32, "trial": 0, "rt": 5069}, "3": {"stimulus": 34, "trial": 3, "rt": 3527}, "2": {"stimulus": 16, "trial": 2, "rt": 5279}, "5": {"stimulus": 34, "trial": 5, "rt": 3219}, "4": {"stimulus": 14, "trial": 4, "rt": 4290}, "7": {"stimulus": 32, "trial": 7, "rt": 2841}, "6": {"stimulus": 16, "trial": 6, "rt": 3402}, "9": {"stimulus": 32, "trial": 9, "rt": 2595}, "8": {"stimulus": 14, "trial": 8, "rt": 2767}}, "generalization": {"56": {"stimulus": 28, "trial": 56, "rt": 1218, "response": "Beta"}, "77": {"stimulus": 24, "trial": 77, "rt": 1149, "response": "Alpha"}, "54": {"stimulus": 37, "trial": 54, "rt": 1296, "response": "Beta"}, "42": {"stimulus": 44, "trial": 42, "rt": 1089, "response": "Alpha"}, "48": {"stimulus": 76, "trial": 48, "rt": 1991, "response": "Alpha"}, "43": {"stimulus": 20, "trial": 43, "rt": 1339, "response": "Beta"}, "60": {"stimulus": 0, "trial": 60, "rt": 1168, "response": "Beta"}, "61": {"stimulus": 26, "trial": 61, "rt": 1370, "response": "Alpha"}, "62": {"stimulus": 42, "trial": 62, "rt": 1133, "response": "Alpha"}, "63": {"stimulus": 59, "trial": 63, "rt": 1188, "response": "Alpha"}, "64": {"stimulus": 60, "trial": 64, "rt": 1169, "response": "Alpha"}, "49": {"stimulus": 52, "trial": 49, "rt": 1602, "response": "Alpha"}, "66": {"stimulus": 80, "trial": 66, "rt": 1247, "response": "Alpha"}, "67": {"stimulus": 71, "trial": 67, "rt": 1168, "response": "Alpha"}, "68": {"stimulus": 6, "trial": 68, "rt": 1193, "response": "Alpha"}, "69": {"stimulus": 67, "trial": 69, "rt": 1162, "response": "Alpha"}, "80": {"stimulus": 19, "trial": 80, "rt": 1116, "response": "Beta"}, "52": {"stimulus": 10, "trial": 52, "rt": 1060, "response": "Beta"}, "53": {"stimulus": 2, "trial": 53, "rt": 1027, "response": "Beta"}, "24": {"stimulus": 17, "trial": 24, "rt": 1374, "response": "Alpha"}, "25": {"stimulus": 31, "trial": 25, "rt": 1498, "response": "Alpha"}, "26": {"stimulus": 73, "trial": 26, "rt": 1324, "response": "Beta"}, "27": {"stimulus": 16, "trial": 27, "rt": 1218, "response": "Alpha"}, "20": {"stimulus": 30, "trial": 20, "rt": 2127, "response": "Beta"}, "21": {"stimulus": 47, "trial": 21, "rt": 1252, "response": "Beta"}, "22": {"stimulus": 9, "trial": 22, "rt": 1297, "response": "Beta"}, "23": {"stimulus": 33, "trial": 23, "rt": 1329, "response": "Alpha"}, "46": {"stimulus": 27, "trial": 46, "rt": 1261, "response": "Beta"}, "47": {"stimulus": 61, "trial": 47, "rt": 1177, "response": "Alpha"}, "44": {"stimulus": 1, "trial": 44, "rt": 1127, "response": "Alpha"}, "45": {"stimulus": 65, "trial": 45, "rt": 1545, "response": "Beta"}, "28": {"stimulus": 51, "trial": 28, "rt": 1257, "response": "Alpha"}, "29": {"stimulus": 5, "trial": 29, "rt": 1684, "response": "Alpha"}, "40": {"stimulus": 43, "trial": 40, "rt": 1198, "response": "Alpha"}, "41": {"stimulus": 21, "trial": 41, "rt": 3257, "response": "Beta"}, "1": {"stimulus": 29, "trial": 1, "rt": 2737, "response": "Beta"}, "0": {"stimulus": 8, "trial": 0, "rt": 3927, "response": "Alpha"}, "3": {"stimulus": 38, "trial": 3, "rt": 2499, "response": "Beta"}, "2": {"stimulus": 62, "trial": 2, "rt": 2043, "response": "Alpha"}, "5": {"stimulus": 48, "trial": 5, "rt": 1853, "response": "Alpha"}, "4": {"stimulus": 57, "trial": 4, "rt": 2354, "response": "Alpha"}, "7": {"stimulus": 23, "trial": 7, "rt": 1776, "response": "Alpha"}, "6": {"stimulus": 36, "trial": 6, "rt": 1522, "response": "Beta"}, "9": {"stimulus": 79, "trial": 9, "rt": 2037, "response": "Alpha"}, "8": {"stimulus": 39, "trial": 8, "rt": 2619, "response": "Alpha"}, "78": {"stimulus": 63, "trial": 78, "rt": 1043, "response": "Beta"}, "51": {"stimulus": 49, "trial": 51, "rt": 1073, "response": "Alpha"}, "39": {"stimulus": 54, "trial": 39, "rt": 1312, "response": "Beta"}, "65": {"stimulus": 75, "trial": 65, "rt": 1466, "response": "Alpha"}, "76": {"stimulus": 50, "trial": 76, "rt": 1281, "response": "Alpha"}, "75": {"stimulus": 40, "trial": 75, "rt": 2637, "response": "Alpha"}, "38": {"stimulus": 35, "trial": 38, "rt": 1224, "response": "Alpha"}, "73": {"stimulus": 56, "trial": 73, "rt": 1318, "response": "Beta"}, "72": {"stimulus": 15, "trial": 72, "rt": 1419, "response": "Alpha"}, "71": {"stimulus": 74, "trial": 71, "rt": 1101, "response": "Beta"}, "70": {"stimulus": 64, "trial": 70, "rt": 1106, "response": "Beta"}, "59": {"stimulus": 46, "trial": 59, "rt": 1140, "response": "Beta"}, "79": {"stimulus": 77, "trial": 79, "rt": 1474, "response": "Alpha"}, "58": {"stimulus": 66, "trial": 58, "rt": 2263, "response": "Beta"}, "11": {"stimulus": 18, "trial": 11, "rt": 1389, "response": "Beta"}, "10": {"stimulus": 13, "trial": 10, "rt": 1741, "response": "Alpha"}, "13": {"stimulus": 45, "trial": 13, "rt": 1617, "response": "Beta"}, "12": {"stimulus": 58, "trial": 12, "rt": 1542, "response": "Alpha"}, "15": {"stimulus": 7, "trial": 15, "rt": 1652, "response": "Alpha"}, "14": {"stimulus": 25, "trial": 14, "rt": 1417, "response": "Alpha"}, "17": {"stimulus": 4, "trial": 17, "rt": 1509, "response": "Alpha"}, "16": {"stimulus": 72, "trial": 16, "rt": 1607, "response": "Beta"}, "19": {"stimulus": 68, "trial": 19, "rt": 1335, "response": "Alpha"}, "18": {"stimulus": 70, "trial": 18, "rt": 1509, "response": "Alpha"}, "31": {"stimulus": 55, "trial": 31, "rt": 1326, "response": "Beta"}, "30": {"stimulus": 22, "trial": 30, "rt": 1743, "response": "Alpha"}, "37": {"stimulus": 41, "trial": 37, "rt": 1284, "response": "Alpha"}, "36": {"stimulus": 53, "trial": 36, "rt": 1163, "response": "Alpha"}, "35": {"stimulus": 12, "trial": 35, "rt": 1484, "response": "Beta"}, "34": {"stimulus": 14, "trial": 34, "rt": 1197, "response": "Alpha"}, "33": {"stimulus": 3, "trial": 33, "rt": 2566, "response": "Beta"}, "55": {"stimulus": 78, "trial": 55, "rt": 1462, "response": "Alpha"}, "74": {"stimulus": 11, "trial": 74, "rt": 1385, "response": "Beta"}, "32": {"stimulus": 69, "trial": 32, "rt": 1410, "response": "Alpha"}, "57": {"stimulus": 34, "trial": 57, "rt": 1250, "response": "Alpha"}, "50": {"stimulus": 32, "trial": 50, "rt": 1204, "response": "Alpha"}}}