{"generation": {"1": {"stimulus": 27, "trial": 1, "rt": 13993}, "0": {"stimulus": 0, "trial": 0, "rt": 16689}, "3": {"stimulus": 63, "trial": 3, "rt": 6934}, "2": {"stimulus": 72, "trial": 2, "rt": 6082}}, "info": {"finish": 1488822186726, "participant": 49, "exposed": true, "lab": false, "start": 1488821922425, "counterbalance": 7, "condition": "XOR", "browser": {"platform": "Win32", "userAgent": "Mozilla/5.0 (Windows NT 6.1; WOW64) AppleWebKit/537.36 (KHTML, like Gecko) Chrome/56.0.2924.87 Safari/537.36"}}, "experiment": {"Paradigm": "TACL", "Stimuli": "Size-Color Squares", "Experiment": "Generating-Categories"}, "observation": {"11": {"stimulus": 10, "trial": 11, "rt": 1129}, "10": {"stimulus": 70, "trial": 10, "rt": 1149}, "1": {"stimulus": 80, "trial": 1, "rt": 8431}, "0": {"stimulus": 0, "trial": 0, "rt": 6739}, "3": {"stimulus": 10, "trial": 3, "rt": 1891}, "2": {"stimulus": 70, "trial": 2, "rt": 1500}, "5": {"stimulus": 70, "trial": 5, "rt": 1253}, "4": {"stimulus": 0, "trial": 4, "rt": 1518}, "7": {"stimulus": 80, "trial": 7, "rt": 1107}, "6": {"stimulus": 10, "trial": 6, "rt": 1128}, "9": {"stimulus": 80, "trial": 9, "rt": 1144}, "8": {"stimulus": 0, "trial": 8, "rt": 1100}}, "generalization": {"56": {"stimulus": 26, "trial": 56, "rt": 1648, "response": "Alpha"}, "77": {"stimulus": 3, "trial": 77, "rt": 945, "response": "Alpha"}, "54": {"stimulus": 37, "trial": 54, "rt": 1268, "response": "Beta"}, "42": {"stimulus": 20, "trial": 42, "rt": 1027, "response": "Alpha"}, "48": {"stimulus": 6, "trial": 48, "rt": 662, "response": "Alpha"}, "43": {"stimulus": 32, "trial": 43, "rt": 658, "response": "Alpha"}, "60": {"stimulus": 44, "trial": 60, "rt": 597, "response": "Alpha"}, "61": {"stimulus": 38, "trial": 61, "rt": 961, "response": "Alpha"}, "62": {"stimulus": 67, "trial": 62, "rt": 648, "response": "Alpha"}, "63": {"stimulus": 9, "trial": 63, "rt": 1325, "response": "Beta"}, "64": {"stimulus": 24, "trial": 64, "rt": 1091, "response": "Alpha"}, "49": {"stimulus": 43, "trial": 49, "rt": 574, "response": "Alpha"}, "66": {"stimulus": 8, "trial": 66, "rt": 861, "response": "Alpha"}, "67": {"stimulus": 14, "trial": 67, "rt": 600, "response": "Alpha"}, "68": {"stimulus": 5, "trial": 68, "rt": 594, "response": "Alpha"}, "69": {"stimulus": 7, "trial": 69, "rt": 549, "response": "Alpha"}, "80": {"stimulus": 28, "trial": 80, "rt": 1418, "response": "Beta"}, "52": {"stimulus": 79, "trial": 52, "rt": 574, "response": "Alpha"}, "53": {"stimulus": 48, "trial": 53, "rt": 563, "response": "Alpha"}, "24": {"stimulus": 12, "trial": 24, "rt": 1361, "response": "Alpha"}, "25": {"stimulus": 47, "trial": 25, "rt": 1813, "response": "Beta"}, "26": {"stimulus": 36, "trial": 26, "rt": 1315, "response": "Beta"}, "27": {"stimulus": 65, "trial": 27, "rt": 1382, "response": "Alpha"}, "20": {"stimulus": 68, "trial": 20, "rt": 681, "response": "Alpha"}, "21": {"stimulus": 33, "trial": 21, "rt": 568, "response": "Alpha"}, "22": {"stimulus": 61, "trial": 22, "rt": 644, "response": "Alpha"}, "23": {"stimulus": 55, "trial": 23, "rt": 561, "response": "Alpha"}, "46": {"stimulus": 54, "trial": 46, "rt": 1251, "response": "Beta"}, "47": {"stimulus": 56, "trial": 47, "rt": 1365, "response": "Alpha"}, "44": {"stimulus": 73, "trial": 44, "rt": 1313, "response": "Beta"}, "45": {"stimulus": 13, "trial": 45, "rt": 1222, "response": "Alpha"}, "28": {"stimulus": 60, "trial": 28, "rt": 695, "response": "Alpha"}, "29": {"stimulus": 40, "trial": 29, "rt": 611, "response": "Alpha"}, "40": {"stimulus": 71, "trial": 40, "rt": 592, "response": "Alpha"}, "41": {"stimulus": 52, "trial": 41, "rt": 613, "response": "Alpha"}, "1": {"stimulus": 19, "trial": 1, "rt": 3083, "response": "Beta"}, "0": {"stimulus": 78, "trial": 0, "rt": 2004, "response": "Beta"}, "3": {"stimulus": 10, "trial": 3, "rt": 2550, "response": "Beta"}, "2": {"stimulus": 42, "trial": 2, "rt": 1348, "response": "Alpha"}, "5": {"stimulus": 77, "trial": 5, "rt": 1329, "response": "Alpha"}, "4": {"stimulus": 29, "trial": 4, "rt": 1780, "response": "Alpha"}, "7": {"stimulus": 17, "trial": 7, "rt": 859, "response": "Alpha"}, "6": {"stimulus": 74, "trial": 6, "rt": 1749, "response": "Alpha"}, "9": {"stimulus": 46, "trial": 9, "rt": 1150, "response": "Beta"}, "8": {"stimulus": 39, "trial": 8, "rt": 2208, "response": "Alpha"}, "78": {"stimulus": 64, "trial": 78, "rt": 580, "response": "Alpha"}, "51": {"stimulus": 31, "trial": 51, "rt": 651, "response": "Alpha"}, "39": {"stimulus": 22, "trial": 39, "rt": 693, "response": "Alpha"}, "65": {"stimulus": 16, "trial": 65, "rt": 613, "response": "Alpha"}, "76": {"stimulus": 51, "trial": 76, "rt": 587, "response": "Alpha"}, "75": {"stimulus": 34, "trial": 75, "rt": 1706, "response": "Alpha"}, "38": {"stimulus": 35, "trial": 38, "rt": 712, "response": "Alpha"}, "73": {"stimulus": 50, "trial": 73, "rt": 579, "response": "Alpha"}, "72": {"stimulus": 53, "trial": 72, "rt": 847, "response": "Alpha"}, "71": {"stimulus": 21, "trial": 71, "rt": 831, "response": "Alpha"}, "70": {"stimulus": 58, "trial": 70, "rt": 706, "response": "Alpha"}, "59": {"stimulus": 62, "trial": 59, "rt": 1331, "response": "Alpha"}, "79": {"stimulus": 15, "trial": 79, "rt": 1147, "response": "Alpha"}, "58": {"stimulus": 41, "trial": 58, "rt": 1050, "response": "Alpha"}, "11": {"stimulus": 70, "trial": 11, "rt": 1407, "response": "Alpha"}, "10": {"stimulus": 27, "trial": 10, "rt": 1179, "response": "Beta"}, "13": {"stimulus": 23, "trial": 13, "rt": 930, "response": "Alpha"}, "12": {"stimulus": 18, "trial": 12, "rt": 1170, "response": "Beta"}, "15": {"stimulus": 49, "trial": 15, "rt": 1098, "response": "Alpha"}, "14": {"stimulus": 66, "trial": 14, "rt": 2329, "response": "Alpha"}, "17": {"stimulus": 80, "trial": 17, "rt": 962, "response": "Alpha"}, "16": {"stimulus": 72, "trial": 16, "rt": 1266, "response": "Beta"}, "19": {"stimulus": 59, "trial": 19, "rt": 735, "response": "Alpha"}, "18": {"stimulus": 76, "trial": 18, "rt": 1471, "response": "Alpha"}, "31": {"stimulus": 11, "trial": 31, "rt": 1767, "response": "Alpha"}, "30": {"stimulus": 1, "trial": 30, "rt": 1788, "response": "Beta"}, "37": {"stimulus": 4, "trial": 37, "rt": 830, "response": "Alpha"}, "36": {"stimulus": 30, "trial": 36, "rt": 796, "response": "Alpha"}, "35": {"stimulus": 69, "trial": 35, "rt": 846, "response": "Alpha"}, "34": {"stimulus": 2, "trial": 34, "rt": 963, "response": "Alpha"}, "33": {"stimulus": 25, "trial": 33, "rt": 1091, "response": "Alpha"}, "55": {"stimulus": 57, "trial": 55, "rt": 1388, "response": "Alpha"}, "74": {"stimulus": 45, "trial": 74, "rt": 1289, "response": "Beta"}, "32": {"stimulus": 63, "trial": 32, "rt": 1179, "response": "Beta"}, "57": {"stimulus": 0, "trial": 57, "rt": 1424, "response": "Beta"}, "50": {"stimulus": 75, "trial": 50, "rt": 574, "response": "Alpha"}}}