{"generation": {"1": {"stimulus": 71, "trial": 1, "rt": 13343}, "0": {"stimulus": 80, "trial": 0, "rt": 25440}, "3": {"stimulus": 69, "trial": 3, "rt": 11215}, "2": {"stimulus": 70, "trial": 2, "rt": 8788}}, "info": {"finish": 1488822303018, "participant": 50, "exposed": true, "lab": false, "start": 1488821922509, "counterbalance": 6, "condition": "Row", "browser": {"platform": "Win32", "userAgent": "Mozilla/5.0 (Windows NT 10.0; Win64; x64) AppleWebKit/537.36 (KHTML, like Gecko) Chrome/56.0.2924.87 Safari/537.36"}}, "experiment": {"Paradigm": "TACL", "Stimuli": "Size-Color Squares", "Experiment": "Generating-Categories"}, "observation": {"11": {"stimulus": 16, "trial": 11, "rt": 1745}, "10": {"stimulus": 10, "trial": 10, "rt": 1901}, "1": {"stimulus": 12, "trial": 1, "rt": 4834}, "0": {"stimulus": 16, "trial": 0, "rt": 7655}, "3": {"stimulus": 10, "trial": 3, "rt": 3654}, "2": {"stimulus": 14, "trial": 2, "rt": 4104}, "5": {"stimulus": 12, "trial": 5, "rt": 3873}, "4": {"stimulus": 14, "trial": 4, "rt": 4730}, "7": {"stimulus": 16, "trial": 7, "rt": 1960}, "6": {"stimulus": 10, "trial": 6, "rt": 3083}, "9": {"stimulus": 12, "trial": 9, "rt": 3716}, "8": {"stimulus": 14, "trial": 8, "rt": 3338}}, "generalization": {"56": {"stimulus": 4, "trial": 56, "rt": 1364, "response": "Alpha"}, "77": {"stimulus": 34, "trial": 77, "rt": 1241, "response": "Beta"}, "54": {"stimulus": 44, "trial": 54, "rt": 866, "response": "Beta"}, "42": {"stimulus": 48, "trial": 42, "rt": 667, "response": "Alpha"}, "48": {"stimulus": 9, "trial": 48, "rt": 943, "response": "Alpha"}, "43": {"stimulus": 24, "trial": 43, "rt": 1558, "response": "Beta"}, "60": {"stimulus": 51, "trial": 60, "rt": 1051, "response": "Beta"}, "61": {"stimulus": 20, "trial": 61, "rt": 624, "response": "Alpha"}, "62": {"stimulus": 67, "trial": 62, "rt": 1265, "response": "Alpha"}, "63": {"stimulus": 78, "trial": 63, "rt": 1009, "response": "Beta"}, "64": {"stimulus": 33, "trial": 64, "rt": 1103, "response": "Beta"}, "49": {"stimulus": 61, "trial": 49, "rt": 1011, "response": "Beta"}, "66": {"stimulus": 6, "trial": 66, "rt": 1022, "response": "Beta"}, "67": {"stimulus": 25, "trial": 67, "rt": 703, "response": "Beta"}, "68": {"stimulus": 46, "trial": 68, "rt": 889, "response": "Alpha"}, "69": {"stimulus": 13, "trial": 69, "rt": 1254, "response": "Alpha"}, "80": {"stimulus": 60, "trial": 80, "rt": 604, "response": "Beta"}, "52": {"stimulus": 50, "trial": 52, "rt": 1742, "response": "Beta"}, "53": {"stimulus": 59, "trial": 53, "rt": 1284, "response": "Beta"}, "24": {"stimulus": 58, "trial": 24, "rt": 828, "response": "Alpha"}, "25": {"stimulus": 0, "trial": 25, "rt": 1630, "response": "Alpha"}, "26": {"stimulus": 64, "trial": 26, "rt": 994, "response": "Alpha"}, "27": {"stimulus": 5, "trial": 27, "rt": 1187, "response": "Alpha"}, "20": {"stimulus": 8, "trial": 20, "rt": 1053, "response": "Beta"}, "21": {"stimulus": 56, "trial": 21, "rt": 9362, "response": "Alpha"}, "22": {"stimulus": 37, "trial": 22, "rt": 778, "response": "Alpha"}, "23": {"stimulus": 68, "trial": 23, "rt": 1770, "response": "Alpha"}, "46": {"stimulus": 10, "trial": 46, "rt": 635, "response": "Alpha"}, "47": {"stimulus": 15, "trial": 47, "rt": 1117, "response": "Beta"}, "44": {"stimulus": 79, "trial": 44, "rt": 856, "response": "Beta"}, "45": {"stimulus": 41, "trial": 45, "rt": 1155, "response": "Beta"}, "28": {"stimulus": 30, "trial": 28, "rt": 913, "response": "Alpha"}, "29": {"stimulus": 42, "trial": 29, "rt": 1690, "response": "Beta"}, "40": {"stimulus": 2, "trial": 40, "rt": 1240, "response": "Alpha"}, "41": {"stimulus": 75, "trial": 41, "rt": 3308, "response": "Alpha"}, "1": {"stimulus": 17, "trial": 1, "rt": 1355, "response": "Beta"}, "0": {"stimulus": 74, "trial": 0, "rt": 3307, "response": "Alpha"}, "3": {"stimulus": 18, "trial": 3, "rt": 1299, "response": "Alpha"}, "2": {"stimulus": 28, "trial": 2, "rt": 1221, "response": "Alpha"}, "5": {"stimulus": 72, "trial": 5, "rt": 10077, "response": "Alpha"}, "4": {"stimulus": 71, "trial": 4, "rt": 1114, "response": "Beta"}, "7": {"stimulus": 3, "trial": 7, "rt": 1252, "response": "Alpha"}, "6": {"stimulus": 14, "trial": 6, "rt": 1688, "response": "Alpha"}, "9": {"stimulus": 7, "trial": 9, "rt": 994, "response": "Beta"}, "8": {"stimulus": 65, "trial": 8, "rt": 1322, "response": "Alpha"}, "78": {"stimulus": 23, "trial": 78, "rt": 2152, "response": "Alpha"}, "51": {"stimulus": 22, "trial": 51, "rt": 852, "response": "Alpha"}, "39": {"stimulus": 49, "trial": 39, "rt": 1003, "response": "Alpha"}, "65": {"stimulus": 52, "trial": 65, "rt": 811, "response": "Beta"}, "76": {"stimulus": 38, "trial": 76, "rt": 707, "response": "Alpha"}, "75": {"stimulus": 11, "trial": 75, "rt": 1255, "response": "Alpha"}, "38": {"stimulus": 27, "trial": 38, "rt": 562, "response": "Alpha"}, "73": {"stimulus": 54, "trial": 73, "rt": 885, "response": "Alpha"}, "72": {"stimulus": 21, "trial": 72, "rt": 1374, "response": "Alpha"}, "71": {"stimulus": 40, "trial": 71, "rt": 1320, "response": "Alpha"}, "70": {"stimulus": 80, "trial": 70, "rt": 1024, "response": "Beta"}, "59": {"stimulus": 57, "trial": 59, "rt": 776, "response": "Alpha"}, "79": {"stimulus": 43, "trial": 79, "rt": 2098, "response": "Beta"}, "58": {"stimulus": 47, "trial": 58, "rt": 524, "response": "Alpha"}, "11": {"stimulus": 31, "trial": 11, "rt": 1812, "response": "Alpha"}, "10": {"stimulus": 32, "trial": 10, "rt": 1108, "response": "Beta"}, "13": {"stimulus": 26, "trial": 13, "rt": 963, "response": "Beta"}, "12": {"stimulus": 16, "trial": 12, "rt": 2041, "response": "Beta"}, "15": {"stimulus": 66, "trial": 15, "rt": 1985, "response": "Alpha"}, "14": {"stimulus": 63, "trial": 14, "rt": 1197, "response": "Alpha"}, "17": {"stimulus": 73, "trial": 17, "rt": 787, "response": "Alpha"}, "16": {"stimulus": 55, "trial": 16, "rt": 1759, "response": "Alpha"}, "19": {"stimulus": 1, "trial": 19, "rt": 1835, "response": "Alpha"}, "18": {"stimulus": 39, "trial": 18, "rt": 1369, "response": "Alpha"}, "31": {"stimulus": 35, "trial": 31, "rt": 1088, "response": "Beta"}, "30": {"stimulus": 77, "trial": 30, "rt": 2267, "response": "Beta"}, "37": {"stimulus": 69, "trial": 37, "rt": 1113, "response": "Beta"}, "36": {"stimulus": 19, "trial": 36, "rt": 1043, "response": "Alpha"}, "35": {"stimulus": 12, "trial": 35, "rt": 788, "response": "Alpha"}, "34": {"stimulus": 36, "trial": 34, "rt": 938, "response": "Alpha"}, "33": {"stimulus": 29, "trial": 33, "rt": 1138, "response": "Alpha"}, "55": {"stimulus": 62, "trial": 55, "rt": 609, "response": "Beta"}, "74": {"stimulus": 70, "trial": 74, "rt": 6056, "response": "Beta"}, "32": {"stimulus": 53, "trial": 32, "rt": 774, "response": "Beta"}, "57": {"stimulus": 45, "trial": 57, "rt": 1443, "response": "Alpha"}, "50": {"stimulus": 76, "trial": 50, "rt": 4257, "response": "Alpha"}}}