{"generation": {"1": {"stimulus": 71, "trial": 1, "rt": 4047}, "0": {"stimulus": 59, "trial": 0, "rt": 3813}, "3": {"stimulus": 70, "trial": 3, "rt": 3359}, "2": {"stimulus": 33, "trial": 2, "rt": 3089}}, "info": {"participant": 51, "exposed": true, "lab": false, "start": 1488821926223, "counterbalance": 4, "condition": "XOR", "browser": {"platform": "Win32", "userAgent": "Mozilla/5.0 (Windows NT 10.0; Win64; x64) AppleWebKit/537.36 (KHTML, like Gecko) Chrome/56.0.2924.87 Safari/537.36"}}, "experiment": {"Paradigm": "TACL", "Stimuli": "Size-Color Squares", "Experiment": "Generating-Categories"}, "observation": {"11": {"stimulus": 70, "trial": 11, "rt": 1239}, "10": {"stimulus": 0, "trial": 10, "rt": 696}, "1": {"stimulus": 10, "trial": 1, "rt": 1672}, "0": {"stimulus": 70, "trial": 0, "rt": 3814}, "3": {"stimulus": 0, "trial": 3, "rt": 730}, "2": {"stimulus": 80, "trial": 2, "rt": 1081}, "5": {"stimulus": 0, "trial": 5, "rt": 1408}, "4": {"stimulus": 80, "trial": 4, "rt": 1070}, "7": {"stimulus": 70, "trial": 7, "rt": 1224}, "6": {"stimulus": 10, "trial": 6, "rt": 773}, "9": {"stimulus": 10, "trial": 9, "rt": 1339}, "8": {"stimulus": 80, "trial": 8, "rt": 1499}}, "generalization": {"56": {"stimulus": 35, "trial": 56, "rt": 908, "response": "Beta"}, "77": {"stimulus": 43, "trial": 77, "rt": 642, "response": "Alpha"}, "54": {"stimulus": 62, "trial": 54, "rt": 1509, "response": "Beta"}, "42": {"stimulus": 50, "trial": 42, "rt": 905, "response": "Beta"}, "48": {"stimulus": 34, "trial": 48, "rt": 1800, "response": "Alpha"}, "43": {"stimulus": 53, "trial": 43, "rt": 803, "response": "Alpha"}, "60": {"stimulus": 7, "trial": 60, "rt": 830, "response": "Beta"}, "61": {"stimulus": 25, "trial": 61, "rt": 721, "response": "Alpha"}, "62": {"stimulus": 38, "trial": 62, "rt": 874, "response": "Beta"}, "63": {"stimulus": 6, "trial": 63, "rt": 681, "response": "Alpha"}, "64": {"stimulus": 17, "trial": 64, "rt": 708, "response": "Beta"}, "49": {"stimulus": 54, "trial": 49, "rt": 1066, "response": "Alpha"}, "66": {"stimulus": 49, "trial": 66, "rt": 745, "response": "Alpha"}, "67": {"stimulus": 26, "trial": 67, "rt": 803, "response": "Beta"}, "68": {"stimulus": 63, "trial": 68, "rt": 641, "response": "Alpha"}, "69": {"stimulus": 21, "trial": 69, "rt": 1259, "response": "Beta"}, "80": {"stimulus": 20, "trial": 80, "rt": 617, "response": "Beta"}, "52": {"stimulus": 1, "trial": 52, "rt": 884, "response": "Beta"}, "53": {"stimulus": 65, "trial": 53, "rt": 1057, "response": "Alpha"}, "24": {"stimulus": 37, "trial": 24, "rt": 893, "response": "Alpha"}, "25": {"stimulus": 66, "trial": 25, "rt": 923, "response": "Beta"}, "26": {"stimulus": 5, "trial": 26, "rt": 831, "response": "Alpha"}, "27": {"stimulus": 71, "trial": 27, "rt": 876, "response": "Beta"}, "20": {"stimulus": 68, "trial": 20, "rt": 1110, "response": "Alpha"}, "21": {"stimulus": 64, "trial": 21, "rt": 1341, "response": "Beta"}, "22": {"stimulus": 59, "trial": 22, "rt": 1170, "response": "Alpha"}, "23": {"stimulus": 29, "trial": 23, "rt": 761, "response": "Alpha"}, "46": {"stimulus": 60, "trial": 46, "rt": 975, "response": "Alpha"}, "47": {"stimulus": 9, "trial": 47, "rt": 1236, "response": "Beta"}, "44": {"stimulus": 23, "trial": 44, "rt": 871, "response": "Alpha"}, "45": {"stimulus": 55, "trial": 45, "rt": 861, "response": "Beta"}, "28": {"stimulus": 75, "trial": 28, "rt": 721, "response": "Alpha"}, "29": {"stimulus": 77, "trial": 29, "rt": 843, "response": "Alpha"}, "40": {"stimulus": 56, "trial": 40, "rt": 968, "response": "Alpha"}, "41": {"stimulus": 11, "trial": 41, "rt": 736, "response": "Alpha"}, "1": {"stimulus": 30, "trial": 1, "rt": 867, "response": "Beta"}, "0": {"stimulus": 19, "trial": 0, "rt": 1283, "response": "Alpha"}, "3": {"stimulus": 73, "trial": 3, "rt": 846, "response": "Alpha"}, "2": {"stimulus": 41, "trial": 2, "rt": 1576, "response": "Alpha"}, "5": {"stimulus": 51, "trial": 5, "rt": 773, "response": "Alpha"}, "4": {"stimulus": 10, "trial": 4, "rt": 817, "response": "Beta"}, "7": {"stimulus": 27, "trial": 7, "rt": 923, "response": "Alpha"}, "6": {"stimulus": 0, "trial": 6, "rt": 707, "response": "Beta"}, "9": {"stimulus": 61, "trial": 9, "rt": 891, "response": "Alpha"}, "8": {"stimulus": 78, "trial": 8, "rt": 735, "response": "Beta"}, "78": {"stimulus": 15, "trial": 78, "rt": 691, "response": "Beta"}, "51": {"stimulus": 72, "trial": 51, "rt": 673, "response": "Alpha"}, "39": {"stimulus": 69, "trial": 39, "rt": 725, "response": "Alpha"}, "65": {"stimulus": 18, "trial": 65, "rt": 658, "response": "Alpha"}, "76": {"stimulus": 52, "trial": 76, "rt": 668, "response": "Alpha"}, "75": {"stimulus": 16, "trial": 75, "rt": 673, "response": "Alpha"}, "38": {"stimulus": 42, "trial": 38, "rt": 708, "response": "Alpha"}, "73": {"stimulus": 48, "trial": 73, "rt": 828, "response": "Beta"}, "72": {"stimulus": 8, "trial": 72, "rt": 939, "response": "Beta"}, "71": {"stimulus": 79, "trial": 71, "rt": 795, "response": "Alpha"}, "70": {"stimulus": 3, "trial": 70, "rt": 932, "response": "Alpha"}, "59": {"stimulus": 44, "trial": 59, "rt": 706, "response": "Alpha"}, "79": {"stimulus": 4, "trial": 79, "rt": 594, "response": "Beta"}, "58": {"stimulus": 70, "trial": 58, "rt": 957, "response": "Beta"}, "11": {"stimulus": 58, "trial": 11, "rt": 965, "response": "Alpha"}, "10": {"stimulus": 14, "trial": 10, "rt": 831, "response": "Beta"}, "13": {"stimulus": 57, "trial": 13, "rt": 929, "response": "Alpha"}, "12": {"stimulus": 32, "trial": 12, "rt": 724, "response": "Beta"}, "15": {"stimulus": 22, "trial": 15, "rt": 973, "response": "Alpha"}, "14": {"stimulus": 2, "trial": 14, "rt": 806, "response": "Beta"}, "17": {"stimulus": 33, "trial": 17, "rt": 773, "response": "Alpha"}, "16": {"stimulus": 36, "trial": 16, "rt": 812, "response": "Beta"}, "19": {"stimulus": 28, "trial": 19, "rt": 1032, "response": "Beta"}, "18": {"stimulus": 31, "trial": 18, "rt": 740, "response": "Alpha"}, "31": {"stimulus": 24, "trial": 31, "rt": 1024, "response": "Beta"}, "30": {"stimulus": 40, "trial": 30, "rt": 968, "response": "Alpha"}, "37": {"stimulus": 39, "trial": 37, "rt": 874, "response": "Beta"}, "36": {"stimulus": 67, "trial": 36, "rt": 1000, "response": "Alpha"}, "35": {"stimulus": 80, "trial": 35, "rt": 798, "response": "Alpha"}, "34": {"stimulus": 76, "trial": 34, "rt": 810, "response": "Beta"}, "33": {"stimulus": 45, "trial": 33, "rt": 806, "response": "Alpha"}, "55": {"stimulus": 74, "trial": 55, "rt": 61488, "response": "Alpha"}, "74": {"stimulus": 47, "trial": 74, "rt": 794, "response": "Alpha"}, "32": {"stimulus": 46, "trial": 32, "rt": 770, "response": "Alpha"}, "57": {"stimulus": 12, "trial": 57, "rt": 692, "response": "Alpha"}, "50": {"stimulus": 13, "trial": 50, "rt": 761, "response": "Beta"}}}61, "response": "Beta"}}}