{"generation": {"1": {"stimulus": 79, "trial": 1, "rt": 10524}, "0": {"stimulus": 75, "trial": 0, "rt": 21991}, "3": {"stimulus": 77, "trial": 3, "rt": 7552}, "2": {"stimulus": 72, "trial": 2, "rt": 5836}}, "info": {"finish": 1488822183571, "participant": 54, "exposed": true, "lab": false, "start": 1488821936583, "counterbalance": 3, "condition": "Row", "browser": {"platform": "Win32", "userAgent": "Mozilla/5.0 (Windows NT 10.0; Win64; x64) AppleWebKit/537.36 (KHTML, like Gecko) Chrome/51.0.2704.79 Safari/537.36 Edge/14.14393"}}, "experiment": {"Paradigm": "TACL", "Stimuli": "Size-Color Squares", "Experiment": "Generating-Categories"}, "observation": {"11": {"stimulus": 12, "trial": 11, "rt": 1169}, "10": {"stimulus": 16, "trial": 10, "rt": 1213}, "1": {"stimulus": 16, "trial": 1, "rt": 3443}, "0": {"stimulus": 10, "trial": 0, "rt": 5516}, "3": {"stimulus": 14, "trial": 3, "rt": 2232}, "2": {"stimulus": 12, "trial": 2, "rt": 2737}, "5": {"stimulus": 10, "trial": 5, "rt": 3446}, "4": {"stimulus": 12, "trial": 4, "rt": 2553}, "7": {"stimulus": 16, "trial": 7, "rt": 1428}, "6": {"stimulus": 14, "trial": 6, "rt": 1425}, "9": {"stimulus": 14, "trial": 9, "rt": 1272}, "8": {"stimulus": 10, "trial": 8, "rt": 1348}}, "generalization": {"56": {"stimulus": 80, "trial": 56, "rt": 803, "response": "Beta"}, "77": {"stimulus": 9, "trial": 77, "rt": 1315, "response": "Alpha"}, "54": {"stimulus": 22, "trial": 54, "rt": 1858, "response": "Alpha"}, "42": {"stimulus": 6, "trial": 42, "rt": 767, "response": "Alpha"}, "48": {"stimulus": 69, "trial": 48, "rt": 705, "response": "Beta"}, "43": {"stimulus": 56, "trial": 43, "rt": 2855, "response": "Beta"}, "60": {"stimulus": 33, "trial": 60, "rt": 1746, "response": "Beta"}, "61": {"stimulus": 41, "trial": 61, "rt": 4098, "response": "Beta"}, "62": {"stimulus": 16, "trial": 62, "rt": 1426, "response": "Alpha"}, "63": {"stimulus": 62, "trial": 63, "rt": 1201, "response": "Beta"}, "64": {"stimulus": 58, "trial": 64, "rt": 865, "response": "Beta"}, "49": {"stimulus": 21, "trial": 49, "rt": 768, "response": "Beta"}, "66": {"stimulus": 5, "trial": 66, "rt": 1486, "response": "Alpha"}, "67": {"stimulus": 30, "trial": 67, "rt": 730, "response": "Alpha"}, "68": {"stimulus": 11, "trial": 68, "rt": 758, "response": "Alpha"}, "69": {"stimulus": 78, "trial": 69, "rt": 1258, "response": "Beta"}, "80": {"stimulus": 13, "trial": 80, "rt": 1475, "response": "Alpha"}, "52": {"stimulus": 19, "trial": 52, "rt": 1542, "response": "Alpha"}, "53": {"stimulus": 36, "trial": 53, "rt": 1461, "response": "Beta"}, "24": {"stimulus": 29, "trial": 24, "rt": 836, "response": "Beta"}, "25": {"stimulus": 50, "trial": 25, "rt": 779, "response": "Beta"}, "26": {"stimulus": 60, "trial": 26, "rt": 663, "response": "Beta"}, "27": {"stimulus": 68, "trial": 27, "rt": 701, "response": "Beta"}, "20": {"stimulus": 66, "trial": 20, "rt": 644, "response": "Beta"}, "21": {"stimulus": 35, "trial": 21, "rt": 2089, "response": "Beta"}, "22": {"stimulus": 44, "trial": 22, "rt": 974, "response": "Beta"}, "23": {"stimulus": 59, "trial": 23, "rt": 788, "response": "Beta"}, "46": {"stimulus": 51, "trial": 46, "rt": 647, "response": "Beta"}, "47": {"stimulus": 54, "trial": 47, "rt": 715, "response": "Beta"}, "44": {"stimulus": 32, "trial": 44, "rt": 759, "response": "Beta"}, "45": {"stimulus": 47, "trial": 45, "rt": 823, "response": "Beta"}, "28": {"stimulus": 45, "trial": 28, "rt": 861, "response": "Beta"}, "29": {"stimulus": 73, "trial": 29, "rt": 812, "response": "Beta"}, "40": {"stimulus": 39, "trial": 40, "rt": 1271, "response": "Beta"}, "41": {"stimulus": 24, "trial": 41, "rt": 1703, "response": "Alpha"}, "1": {"stimulus": 55, "trial": 1, "rt": 1362, "response": "Beta"}, "0": {"stimulus": 42, "trial": 0, "rt": 4270, "response": "Beta"}, "3": {"stimulus": 1, "trial": 3, "rt": 821, "response": "Alpha"}, "2": {"stimulus": 15, "trial": 2, "rt": 1466, "response": "Alpha"}, "5": {"stimulus": 10, "trial": 5, "rt": 749, "response": "Alpha"}, "4": {"stimulus": 8, "trial": 4, "rt": 761, "response": "Alpha"}, "7": {"stimulus": 64, "trial": 7, "rt": 687, "response": "Beta"}, "6": {"stimulus": 65, "trial": 6, "rt": 1355, "response": "Beta"}, "9": {"stimulus": 79, "trial": 9, "rt": 703, "response": "Beta"}, "8": {"stimulus": 72, "trial": 8, "rt": 665, "response": "Beta"}, "78": {"stimulus": 46, "trial": 78, "rt": 1488, "response": "Beta"}, "51": {"stimulus": 57, "trial": 51, "rt": 676, "response": "Beta"}, "39": {"stimulus": 4, "trial": 39, "rt": 678, "response": "Alpha"}, "65": {"stimulus": 75, "trial": 65, "rt": 738, "response": "Beta"}, "76": {"stimulus": 52, "trial": 76, "rt": 1288, "response": "Beta"}, "75": {"stimulus": 23, "trial": 75, "rt": 1669, "response": "Alpha"}, "38": {"stimulus": 17, "trial": 38, "rt": 740, "response": "Alpha"}, "73": {"stimulus": 7, "trial": 73, "rt": 1708, "response": "Alpha"}, "72": {"stimulus": 76, "trial": 72, "rt": 769, "response": "Beta"}, "71": {"stimulus": 53, "trial": 71, "rt": 700, "response": "Beta"}, "70": {"stimulus": 77, "trial": 70, "rt": 696, "response": "Beta"}, "59": {"stimulus": 43, "trial": 59, "rt": 1268, "response": "Beta"}, "79": {"stimulus": 25, "trial": 79, "rt": 1481, "response": "Alpha"}, "58": {"stimulus": 20, "trial": 58, "rt": 1411, "response": "Alpha"}, "11": {"stimulus": 49, "trial": 11, "rt": 817, "response": "Beta"}, "10": {"stimulus": 27, "trial": 10, "rt": 1050, "response": "Beta"}, "13": {"stimulus": 67, "trial": 13, "rt": 847, "response": "Beta"}, "12": {"stimulus": 18, "trial": 12, "rt": 1055, "response": "Beta"}, "15": {"stimulus": 3, "trial": 15, "rt": 705, "response": "Alpha"}, "14": {"stimulus": 12, "trial": 14, "rt": 3564, "response": "Alpha"}, "17": {"stimulus": 63, "trial": 17, "rt": 722, "response": "Beta"}, "16": {"stimulus": 28, "trial": 16, "rt": 1426, "response": "Beta"}, "19": {"stimulus": 71, "trial": 19, "rt": 704, "response": "Beta"}, "18": {"stimulus": 74, "trial": 18, "rt": 664, "response": "Beta"}, "31": {"stimulus": 34, "trial": 31, "rt": 719, "response": "Alpha"}, "30": {"stimulus": 31, "trial": 30, "rt": 2137, "response": "Alpha"}, "37": {"stimulus": 0, "trial": 37, "rt": 971, "response": "Alpha"}, "36": {"stimulus": 26, "trial": 36, "rt": 1636, "response": "Alpha"}, "35": {"stimulus": 38, "trial": 35, "rt": 666, "response": "Beta"}, "34": {"stimulus": 40, "trial": 34, "rt": 1527, "response": "Beta"}, "33": {"stimulus": 2, "trial": 33, "rt": 716, "response": "Alpha"}, "55": {"stimulus": 70, "trial": 55, "rt": 1350, "response": "Beta"}, "74": {"stimulus": 48, "trial": 74, "rt": 1384, "response": "Beta"}, "32": {"stimulus": 14, "trial": 32, "rt": 785, "response": "Alpha"}, "57": {"stimulus": 37, "trial": 57, "rt": 1130, "response": "Beta"}, "50": {"stimulus": 61, "trial": 50, "rt": 1001, "response": "Beta"}}}