{"generation": {"1": {"stimulus": 1, "trial": 1, "rt": 4551}, "0": {"stimulus": 9, "trial": 0, "rt": 10319}, "3": {"stimulus": 0, "trial": 3, "rt": 4772}, "2": {"stimulus": 11, "trial": 2, "rt": 3944}}, "info": {"participant": 55, "exposed": true, "lab": false, "start": 1488821939015, "counterbalance": 5, "condition": "Cluster", "browser": {"platform": "Win32", "userAgent": "Mozilla/5.0 (Windows NT 6.1; Win64; x64) AppleWebKit/537.36 (KHTML, like Gecko) Chrome/56.0.2924.87 Safari/537.36"}}, "experiment": {"Paradigm": "TACL", "Stimuli": "Size-Color Squares", "Experiment": "Generating-Categories"}, "observation": {"11": {"stimulus": 32, "trial": 11, "rt": 905}, "10": {"stimulus": 16, "trial": 10, "rt": 2931}, "1": {"stimulus": 32, "trial": 1, "rt": 1406}, "0": {"stimulus": 16, "trial": 0, "rt": 2842}, "3": {"stimulus": 34, "trial": 3, "rt": 1076}, "2": {"stimulus": 14, "trial": 2, "rt": 1052}, "5": {"stimulus": 14, "trial": 5, "rt": 987}, "4": {"stimulus": 16, "trial": 4, "rt": 2586}, "7": {"stimulus": 34, "trial": 7, "rt": 15011}, "6": {"stimulus": 32, "trial": 6, "rt": 1216}, "9": {"stimulus": 14, "trial": 9, "rt": 1124}, "8": {"stimulus": 34, "trial": 8, "rt": 1724}}, "generalization": {"56": {"stimulus": 60, "trial": 56, "rt": 436, "response": "Alpha"}, "77": {"stimulus": 73, "trial": 77, "rt": 430, "response": "Alpha"}, "54": {"stimulus": 7, "trial": 54, "rt": 522, "response": "Alpha"}, "42": {"stimulus": 25, "trial": 42, "rt": 422, "response": "Alpha"}, "48": {"stimulus": 12, "trial": 48, "rt": 600, "response": "Alpha"}, "43": {"stimulus": 66, "trial": 43, "rt": 531, "response": "Alpha"}, "60": {"stimulus": 9, "trial": 60, "rt": 729, "response": "Beta"}, "61": {"stimulus": 40, "trial": 61, "rt": 367, "response": "Alpha"}, "62": {"stimulus": 14, "trial": 62, "rt": 445, "response": "Alpha"}, "63": {"stimulus": 80, "trial": 63, "rt": 390, "response": "Alpha"}, "64": {"stimulus": 24, "trial": 64, "rt": 585, "response": "Alpha"}, "49": {"stimulus": 41, "trial": 49, "rt": 668, "response": "Alpha"}, "66": {"stimulus": 74, "trial": 66, "rt": 387, "response": "Alpha"}, "67": {"stimulus": 58, "trial": 67, "rt": 412, "response": "Alpha"}, "68": {"stimulus": 32, "trial": 68, "rt": 568, "response": "Alpha"}, "69": {"stimulus": 43, "trial": 69, "rt": 437, "response": "Alpha"}, "80": {"stimulus": 16, "trial": 80, "rt": 333, "response": "Alpha"}, "52": {"stimulus": 57, "trial": 52, "rt": 502, "response": "Alpha"}, "53": {"stimulus": 42, "trial": 53, "rt": 9809, "response": "Alpha"}, "24": {"stimulus": 22, "trial": 24, "rt": 864, "response": "Alpha"}, "25": {"stimulus": 70, "trial": 25, "rt": 471, "response": "Alpha"}, "26": {"stimulus": 47, "trial": 26, "rt": 666, "response": "Alpha"}, "27": {"stimulus": 3, "trial": 27, "rt": 1136, "response": "Beta"}, "20": {"stimulus": 52, "trial": 20, "rt": 409, "response": "Alpha"}, "21": {"stimulus": 75, "trial": 21, "rt": 692, "response": "Alpha"}, "22": {"stimulus": 46, "trial": 22, "rt": 518, "response": "Alpha"}, "23": {"stimulus": 38, "trial": 23, "rt": 648, "response": "Alpha"}, "46": {"stimulus": 54, "trial": 46, "rt": 813, "response": "Alpha"}, "47": {"stimulus": 20, "trial": 47, "rt": 940, "response": "Beta"}, "44": {"stimulus": 33, "trial": 44, "rt": 474, "response": "Alpha"}, "45": {"stimulus": 48, "trial": 45, "rt": 464, "response": "Alpha"}, "28": {"stimulus": 53, "trial": 28, "rt": 452, "response": "Alpha"}, "29": {"stimulus": 27, "trial": 29, "rt": 1870, "response": "Alpha"}, "40": {"stimulus": 15, "trial": 40, "rt": 602, "response": "Alpha"}, "41": {"stimulus": 45, "trial": 41, "rt": 1002, "response": "Alpha"}, "1": {"stimulus": 10, "trial": 1, "rt": 1033, "response": "Beta"}, "0": {"stimulus": 4, "trial": 0, "rt": 1617, "response": "Alpha"}, "3": {"stimulus": 11, "trial": 3, "rt": 900, "response": "Beta"}, "2": {"stimulus": 21, "trial": 2, "rt": 1018, "response": "Alpha"}, "5": {"stimulus": 49, "trial": 5, "rt": 17282, "response": "Alpha"}, "4": {"stimulus": 61, "trial": 4, "rt": 649, "response": "Alpha"}, "7": {"stimulus": 37, "trial": 7, "rt": 1330, "response": "Alpha"}, "6": {"stimulus": 51, "trial": 6, "rt": 759, "response": "Alpha"}, "9": {"stimulus": 77, "trial": 9, "rt": 491, "response": "Alpha"}, "8": {"stimulus": 63, "trial": 8, "rt": 554, "response": "Alpha"}, "78": {"stimulus": 76, "trial": 78, "rt": 377, "response": "Alpha"}, "51": {"stimulus": 0, "trial": 51, "rt": 868, "response": "Beta"}, "39": {"stimulus": 6, "trial": 39, "rt": 989, "response": "Alpha"}, "65": {"stimulus": 59, "trial": 65, "rt": 399, "response": "Alpha"}, "76": {"stimulus": 39, "trial": 76, "rt": 579, "response": "Alpha"}, "75": {"stimulus": 35, "trial": 75, "rt": 491, "response": "Alpha"}, "38": {"stimulus": 68, "trial": 38, "rt": 386, "response": "Alpha"}, "73": {"stimulus": 64, "trial": 73, "rt": 418, "response": "Alpha"}, "72": {"stimulus": 55, "trial": 72, "rt": 674, "response": "Alpha"}, "71": {"stimulus": 34, "trial": 71, "rt": 5736, "response": "Alpha"}, "70": {"stimulus": 26, "trial": 70, "rt": 378, "response": "Alpha"}, "59": {"stimulus": 2, "trial": 59, "rt": 990, "response": "Beta"}, "79": {"stimulus": 71, "trial": 79, "rt": 323, "response": "Alpha"}, "58": {"stimulus": 79, "trial": 58, "rt": 364, "response": "Alpha"}, "11": {"stimulus": 65, "trial": 11, "rt": 532, "response": "Alpha"}, "10": {"stimulus": 29, "trial": 10, "rt": 658, "response": "Alpha"}, "13": {"stimulus": 56, "trial": 13, "rt": 718, "response": "Alpha"}, "12": {"stimulus": 17, "trial": 12, "rt": 710, "response": "Alpha"}, "15": {"stimulus": 13, "trial": 15, "rt": 706, "response": "Alpha"}, "14": {"stimulus": 30, "trial": 14, "rt": 689, "response": "Alpha"}, "17": {"stimulus": 50, "trial": 17, "rt": 422, "response": "Alpha"}, "16": {"stimulus": 23, "trial": 16, "rt": 455, "response": "Alpha"}, "19": {"stimulus": 5, "trial": 19, "rt": 441, "response": "Alpha"}, "18": {"stimulus": 67, "trial": 18, "rt": 411, "response": "Alpha"}, "31": {"stimulus": 1, "trial": 31, "rt": 1493, "response": "Beta"}, "30": {"stimulus": 72, "trial": 30, "rt": 709, "response": "Alpha"}, "37": {"stimulus": 44, "trial": 37, "rt": 494, "response": "Alpha"}, "36": {"stimulus": 18, "trial": 36, "rt": 743, "response": "Beta"}, "35": {"stimulus": 78, "trial": 35, "rt": 447, "response": "Alpha"}, "34": {"stimulus": 62, "trial": 34, "rt": 380, "response": "Alpha"}, "33": {"stimulus": 19, "trial": 33, "rt": 798, "response": "Beta"}, "55": {"stimulus": 31, "trial": 55, "rt": 762, "response": "Alpha"}, "74": {"stimulus": 36, "trial": 74, "rt": 1506, "response": "Alpha"}, "32": {"stimulus": 69, "trial": 32, "rt": 580, "response": "Alpha"}, "57": {"stimulus": 8, "trial": 57, "rt": 497, "response": "Alpha"}, "50": {"stimulus": 28, "trial": 50, "rt": 1719, "response": "Alpha"}}}9, "response": "Alpha"}}}