{"generation": {"1": {"stimulus": 8, "trial": 1, "rt": 9203}, "0": {"stimulus": 72, "trial": 0, "rt": 21100}, "3": {"stimulus": 80, "trial": 3, "rt": 8955}, "2": {"stimulus": 0, "trial": 2, "rt": 5203}}, "info": {"finish": 1488822190627, "participant": 56, "exposed": true, "lab": false, "start": 1488821942166, "counterbalance": 2, "condition": "XOR", "browser": {"platform": "Win32", "userAgent": "Mozilla/5.0 (Windows NT 6.1; WOW64) AppleWebKit/537.36 (KHTML, like Gecko) Chrome/56.0.2924.87 Safari/537.36"}}, "experiment": {"Paradigm": "TACL", "Stimuli": "Size-Color Squares", "Experiment": "Generating-Categories"}, "observation": {"11": {"stimulus": 10, "trial": 11, "rt": 1280}, "10": {"stimulus": 70, "trial": 10, "rt": 1075}, "1": {"stimulus": 10, "trial": 1, "rt": 2826}, "0": {"stimulus": 80, "trial": 0, "rt": 4731}, "3": {"stimulus": 0, "trial": 3, "rt": 2445}, "2": {"stimulus": 70, "trial": 2, "rt": 2101}, "5": {"stimulus": 70, "trial": 5, "rt": 1518}, "4": {"stimulus": 10, "trial": 4, "rt": 1663}, "7": {"stimulus": 80, "trial": 7, "rt": 1103}, "6": {"stimulus": 0, "trial": 6, "rt": 1147}, "9": {"stimulus": 80, "trial": 9, "rt": 1417}, "8": {"stimulus": 0, "trial": 8, "rt": 1480}}, "generalization": {"56": {"stimulus": 57, "trial": 56, "rt": 2445, "response": "Alpha"}, "77": {"stimulus": 72, "trial": 77, "rt": 643, "response": "Alpha"}, "54": {"stimulus": 4, "trial": 54, "rt": 662, "response": "Beta"}, "42": {"stimulus": 1, "trial": 42, "rt": 809, "response": "Beta"}, "48": {"stimulus": 41, "trial": 48, "rt": 614, "response": "Alpha"}, "43": {"stimulus": 37, "trial": 43, "rt": 442, "response": "Alpha"}, "60": {"stimulus": 63, "trial": 60, "rt": 1458, "response": "Alpha"}, "61": {"stimulus": 3, "trial": 61, "rt": 782, "response": "Beta"}, "62": {"stimulus": 61, "trial": 62, "rt": 456, "response": "Alpha"}, "63": {"stimulus": 20, "trial": 63, "rt": 553, "response": "Alpha"}, "64": {"stimulus": 31, "trial": 64, "rt": 782, "response": "Alpha"}, "49": {"stimulus": 80, "trial": 49, "rt": 1403, "response": "Beta"}, "66": {"stimulus": 77, "trial": 66, "rt": 1211, "response": "Alpha"}, "67": {"stimulus": 56, "trial": 67, "rt": 413, "response": "Alpha"}, "68": {"stimulus": 64, "trial": 68, "rt": 789, "response": "Alpha"}, "69": {"stimulus": 32, "trial": 69, "rt": 747, "response": "Alpha"}, "80": {"stimulus": 27, "trial": 80, "rt": 790, "response": "Alpha"}, "52": {"stimulus": 75, "trial": 52, "rt": 774, "response": "Alpha"}, "53": {"stimulus": 70, "trial": 53, "rt": 1052, "response": "Alpha"}, "24": {"stimulus": 54, "trial": 24, "rt": 588, "response": "Alpha"}, "25": {"stimulus": 39, "trial": 25, "rt": 550, "response": "Alpha"}, "26": {"stimulus": 23, "trial": 26, "rt": 638, "response": "Alpha"}, "27": {"stimulus": 10, "trial": 27, "rt": 2182, "response": "Beta"}, "20": {"stimulus": 18, "trial": 20, "rt": 935, "response": "Alpha"}, "21": {"stimulus": 74, "trial": 21, "rt": 829, "response": "Alpha"}, "22": {"stimulus": 16, "trial": 22, "rt": 1523, "response": "Beta"}, "23": {"stimulus": 43, "trial": 23, "rt": 673, "response": "Alpha"}, "46": {"stimulus": 60, "trial": 46, "rt": 474, "response": "Alpha"}, "47": {"stimulus": 29, "trial": 47, "rt": 541, "response": "Alpha"}, "44": {"stimulus": 7, "trial": 44, "rt": 872, "response": "Beta"}, "45": {"stimulus": 52, "trial": 45, "rt": 462, "response": "Alpha"}, "28": {"stimulus": 21, "trial": 28, "rt": 989, "response": "Alpha"}, "29": {"stimulus": 9, "trial": 29, "rt": 970, "response": "Beta"}, "40": {"stimulus": 12, "trial": 40, "rt": 2035, "response": "Alpha"}, "41": {"stimulus": 11, "trial": 41, "rt": 8095, "response": "Alpha"}, "1": {"stimulus": 35, "trial": 1, "rt": 2078, "response": "Alpha"}, "0": {"stimulus": 55, "trial": 0, "rt": 2729, "response": "Alpha"}, "3": {"stimulus": 53, "trial": 3, "rt": 2191, "response": "Alpha"}, "2": {"stimulus": 48, "trial": 2, "rt": 1664, "response": "Alpha"}, "5": {"stimulus": 66, "trial": 5, "rt": 949, "response": "Alpha"}, "4": {"stimulus": 51, "trial": 4, "rt": 726, "response": "Alpha"}, "7": {"stimulus": 26, "trial": 7, "rt": 859, "response": "Alpha"}, "6": {"stimulus": 67, "trial": 6, "rt": 831, "response": "Alpha"}, "9": {"stimulus": 33, "trial": 9, "rt": 679, "response": "Alpha"}, "8": {"stimulus": 5, "trial": 8, "rt": 3032, "response": "Beta"}, "78": {"stimulus": 24, "trial": 78, "rt": 575, "response": "Alpha"}, "51": {"stimulus": 22, "trial": 51, "rt": 1266, "response": "Alpha"}, "39": {"stimulus": 45, "trial": 39, "rt": 657, "response": "Alpha"}, "65": {"stimulus": 79, "trial": 65, "rt": 910, "response": "Beta"}, "76": {"stimulus": 2, "trial": 76, "rt": 1605, "response": "Alpha"}, "75": {"stimulus": 62, "trial": 75, "rt": 852, "response": "Alpha"}, "38": {"stimulus": 0, "trial": 38, "rt": 879, "response": "Beta"}, "73": {"stimulus": 38, "trial": 73, "rt": 646, "response": "Alpha"}, "72": {"stimulus": 68, "trial": 72, "rt": 595, "response": "Alpha"}, "71": {"stimulus": 15, "trial": 71, "rt": 970, "response": "Alpha"}, "70": {"stimulus": 8, "trial": 70, "rt": 693, "response": "Beta"}, "59": {"stimulus": 40, "trial": 59, "rt": 671, "response": "Alpha"}, "79": {"stimulus": 42, "trial": 79, "rt": 676, "response": "Alpha"}, "58": {"stimulus": 69, "trial": 58, "rt": 601, "response": "Alpha"}, "11": {"stimulus": 65, "trial": 11, "rt": 1406, "response": "Alpha"}, "10": {"stimulus": 17, "trial": 10, "rt": 1673, "response": "Alpha"}, "13": {"stimulus": 28, "trial": 13, "rt": 800, "response": "Alpha"}, "12": {"stimulus": 25, "trial": 12, "rt": 589, "response": "Alpha"}, "15": {"stimulus": 76, "trial": 15, "rt": 834, "response": "Alpha"}, "14": {"stimulus": 73, "trial": 14, "rt": 3307, "response": "Alpha"}, "17": {"stimulus": 71, "trial": 17, "rt": 1683, "response": "Alpha"}, "16": {"stimulus": 46, "trial": 16, "rt": 1021, "response": "Alpha"}, "19": {"stimulus": 30, "trial": 19, "rt": 877, "response": "Alpha"}, "18": {"stimulus": 14, "trial": 18, "rt": 2248, "response": "Alpha"}, "31": {"stimulus": 6, "trial": 31, "rt": 1024, "response": "Beta"}, "30": {"stimulus": 59, "trial": 30, "rt": 585, "response": "Alpha"}, "37": {"stimulus": 19, "trial": 37, "rt": 582, "response": "Alpha"}, "36": {"stimulus": 13, "trial": 36, "rt": 1551, "response": "Alpha"}, "35": {"stimulus": 34, "trial": 35, "rt": 501, "response": "Alpha"}, "34": {"stimulus": 36, "trial": 34, "rt": 482, "response": "Alpha"}, "33": {"stimulus": 58, "trial": 33, "rt": 589, "response": "Alpha"}, "55": {"stimulus": 49, "trial": 55, "rt": 513, "response": "Alpha"}, "74": {"stimulus": 47, "trial": 74, "rt": 519, "response": "Alpha"}, "32": {"stimulus": 50, "trial": 32, "rt": 576, "response": "Alpha"}, "57": {"stimulus": 78, "trial": 57, "rt": 580, "response": "Alpha"}, "50": {"stimulus": 44, "trial": 50, "rt": 843, "response": "Alpha"}}}