{"generation": {"1": {"stimulus": 72, "trial": 1, "rt": 6264}, "0": {"stimulus": 8, "trial": 0, "rt": 18319}, "3": {"stimulus": 6, "trial": 3, "rt": 5058}, "2": {"stimulus": 78, "trial": 2, "rt": 10071}}, "info": {"finish": 1488822237828, "participant": 57, "exposed": true, "lab": false, "start": 1488821945187, "counterbalance": 7, "condition": "XOR", "browser": {"platform": "Win32", "userAgent": "Mozilla/5.0 (Windows NT 10.0; WOW64; rv:51.0) Gecko/20100101 Firefox/51.0"}}, "experiment": {"Paradigm": "TACL", "Stimuli": "Size-Color Squares", "Experiment": "Generating-Categories"}, "observation": {"11": {"stimulus": 80, "trial": 11, "rt": 1234}, "10": {"stimulus": 10, "trial": 10, "rt": 1865}, "1": {"stimulus": 0, "trial": 1, "rt": 3803}, "0": {"stimulus": 10, "trial": 0, "rt": 5551}, "3": {"stimulus": 80, "trial": 3, "rt": 2891}, "2": {"stimulus": 70, "trial": 2, "rt": 3405}, "5": {"stimulus": 70, "trial": 5, "rt": 1763}, "4": {"stimulus": 10, "trial": 4, "rt": 2749}, "7": {"stimulus": 80, "trial": 7, "rt": 2110}, "6": {"stimulus": 0, "trial": 6, "rt": 2007}, "9": {"stimulus": 0, "trial": 9, "rt": 1687}, "8": {"stimulus": 70, "trial": 8, "rt": 1911}}, "generalization": {"56": {"stimulus": 49, "trial": 56, "rt": 1068, "response": "Alpha"}, "77": {"stimulus": 3, "trial": 77, "rt": 1655, "response": "Alpha"}, "54": {"stimulus": 57, "trial": 54, "rt": 1725, "response": "Beta"}, "42": {"stimulus": 31, "trial": 42, "rt": 1983, "response": "Beta"}, "48": {"stimulus": 53, "trial": 48, "rt": 2179, "response": "Alpha"}, "43": {"stimulus": 9, "trial": 43, "rt": 1867, "response": "Alpha"}, "60": {"stimulus": 68, "trial": 60, "rt": 1616, "response": "Beta"}, "61": {"stimulus": 44, "trial": 61, "rt": 1959, "response": "Alpha"}, "62": {"stimulus": 65, "trial": 62, "rt": 3179, "response": "Alpha"}, "63": {"stimulus": 58, "trial": 63, "rt": 865, "response": "Alpha"}, "64": {"stimulus": 35, "trial": 64, "rt": 2243, "response": "Beta"}, "49": {"stimulus": 79, "trial": 49, "rt": 1491, "response": "Beta"}, "66": {"stimulus": 16, "trial": 66, "rt": 1296, "response": "Beta"}, "67": {"stimulus": 20, "trial": 67, "rt": 2848, "response": "Alpha"}, "68": {"stimulus": 19, "trial": 68, "rt": 859, "response": "Alpha"}, "69": {"stimulus": 55, "trial": 69, "rt": 1061, "response": "Alpha"}, "80": {"stimulus": 36, "trial": 80, "rt": 2110, "response": "Alpha"}, "52": {"stimulus": 73, "trial": 52, "rt": 1566, "response": "Alpha"}, "53": {"stimulus": 18, "trial": 53, "rt": 1458, "response": "Alpha"}, "24": {"stimulus": 42, "trial": 24, "rt": 1063, "response": "Beta"}, "25": {"stimulus": 22, "trial": 25, "rt": 2069, "response": "Beta"}, "26": {"stimulus": 39, "trial": 26, "rt": 1451, "response": "Beta"}, "27": {"stimulus": 66, "trial": 27, "rt": 2313, "response": "Beta"}, "20": {"stimulus": 47, "trial": 20, "rt": 1343, "response": "Alpha"}, "21": {"stimulus": 26, "trial": 21, "rt": 2741, "response": "Beta"}, "22": {"stimulus": 70, "trial": 22, "rt": 1015, "response": "Beta"}, "23": {"stimulus": 50, "trial": 23, "rt": 1005, "response": "Beta"}, "46": {"stimulus": 0, "trial": 46, "rt": 1642, "response": "Alpha"}, "47": {"stimulus": 54, "trial": 47, "rt": 2890, "response": "Alpha"}, "44": {"stimulus": 40, "trial": 44, "rt": 1874, "response": "Beta"}, "45": {"stimulus": 8, "trial": 45, "rt": 1163, "response": "Alpha"}, "28": {"stimulus": 56, "trial": 28, "rt": 1255, "response": "Alpha"}, "29": {"stimulus": 67, "trial": 29, "rt": 1437, "response": "Beta"}, "40": {"stimulus": 7, "trial": 40, "rt": 1524, "response": "Beta"}, "41": {"stimulus": 72, "trial": 41, "rt": 1663, "response": "Alpha"}, "1": {"stimulus": 61, "trial": 1, "rt": 2021, "response": "Beta"}, "0": {"stimulus": 34, "trial": 0, "rt": 2240, "response": "Beta"}, "3": {"stimulus": 63, "trial": 3, "rt": 2249, "response": "Alpha"}, "2": {"stimulus": 62, "trial": 2, "rt": 2531, "response": "Beta"}, "5": {"stimulus": 78, "trial": 5, "rt": 1200, "response": "Beta"}, "4": {"stimulus": 60, "trial": 4, "rt": 1593, "response": "Beta"}, "7": {"stimulus": 48, "trial": 7, "rt": 999, "response": "Alpha"}, "6": {"stimulus": 28, "trial": 6, "rt": 1063, "response": "Alpha"}, "9": {"stimulus": 2, "trial": 9, "rt": 1453, "response": "Alpha"}, "8": {"stimulus": 80, "trial": 8, "rt": 1443, "response": "Beta"}, "78": {"stimulus": 29, "trial": 78, "rt": 1079, "response": "Alpha"}, "51": {"stimulus": 32, "trial": 51, "rt": 1620, "response": "Beta"}, "39": {"stimulus": 1, "trial": 39, "rt": 1147, "response": "Alpha"}, "65": {"stimulus": 23, "trial": 65, "rt": 1272, "response": "Beta"}, "76": {"stimulus": 69, "trial": 76, "rt": 959, "response": "Beta"}, "75": {"stimulus": 6, "trial": 75, "rt": 1977, "response": "Beta"}, "38": {"stimulus": 14, "trial": 38, "rt": 3265, "response": "Beta"}, "73": {"stimulus": 43, "trial": 73, "rt": 1254, "response": "Beta"}, "72": {"stimulus": 4, "trial": 72, "rt": 805, "response": "Beta"}, "71": {"stimulus": 15, "trial": 71, "rt": 1187, "response": "Beta"}, "70": {"stimulus": 37, "trial": 70, "rt": 913, "response": "Alpha"}, "59": {"stimulus": 24, "trial": 59, "rt": 1467, "response": "Alpha"}, "79": {"stimulus": 77, "trial": 79, "rt": 1435, "response": "Alpha"}, "58": {"stimulus": 64, "trial": 58, "rt": 1351, "response": "Alpha"}, "11": {"stimulus": 59, "trial": 11, "rt": 1545, "response": "Beta"}, "10": {"stimulus": 30, "trial": 10, "rt": 860, "response": "Alpha"}, "13": {"stimulus": 52, "trial": 13, "rt": 2537, "response": "Beta"}, "12": {"stimulus": 21, "trial": 12, "rt": 929, "response": "Alpha"}, "15": {"stimulus": 76, "trial": 15, "rt": 1413, "response": "Alpha"}, "14": {"stimulus": 13, "trial": 14, "rt": 1491, "response": "Alpha"}, "17": {"stimulus": 46, "trial": 17, "rt": 1251, "response": "Alpha"}, "16": {"stimulus": 38, "trial": 16, "rt": 3421, "response": "Alpha"}, "19": {"stimulus": 45, "trial": 19, "rt": 1149, "response": "Alpha"}, "18": {"stimulus": 10, "trial": 18, "rt": 981, "response": "Alpha"}, "31": {"stimulus": 5, "trial": 31, "rt": 1327, "response": "Alpha"}, "30": {"stimulus": 75, "trial": 30, "rt": 2155, "response": "Alpha"}, "37": {"stimulus": 27, "trial": 37, "rt": 1320, "response": "Alpha"}, "36": {"stimulus": 25, "trial": 36, "rt": 1036, "response": "Alpha"}, "35": {"stimulus": 17, "trial": 35, "rt": 954, "response": "Alpha"}, "34": {"stimulus": 74, "trial": 34, "rt": 2086, "response": "Beta"}, "33": {"stimulus": 41, "trial": 33, "rt": 975, "response": "Beta"}, "55": {"stimulus": 11, "trial": 55, "rt": 1452, "response": "Alpha"}, "74": {"stimulus": 71, "trial": 74, "rt": 1342, "response": "Beta"}, "32": {"stimulus": 33, "trial": 32, "rt": 1548, "response": "Beta"}, "57": {"stimulus": 51, "trial": 57, "rt": 1429, "response": "Beta"}, "50": {"stimulus": 12, "trial": 50, "rt": 1498, "response": "Beta"}}}