{"generation": {"1": {"stimulus": 1, "trial": 1, "rt": 16491}, "0": {"stimulus": 0, "trial": 0, "rt": 29804}, "3": {"stimulus": 10, "trial": 3, "rt": 7991}, "2": {"stimulus": 9, "trial": 2, "rt": 8604}}, "info": {"finish": 1488822258212, "participant": 58, "exposed": true, "lab": false, "start": 1488821952530, "counterbalance": 4, "condition": "Cluster", "browser": {"platform": "Win32", "userAgent": "Mozilla/5.0 (Windows NT 6.1) AppleWebKit/537.36 (KHTML, like Gecko) Chrome/56.0.2924.87 Safari/537.36"}}, "experiment": {"Paradigm": "TACL", "Stimuli": "Size-Color Squares", "Experiment": "Generating-Categories"}, "observation": {"11": {"stimulus": 14, "trial": 11, "rt": 3443}, "10": {"stimulus": 34, "trial": 10, "rt": 3205}, "1": {"stimulus": 16, "trial": 1, "rt": 3660}, "0": {"stimulus": 32, "trial": 0, "rt": 7817}, "3": {"stimulus": 34, "trial": 3, "rt": 2905}, "2": {"stimulus": 14, "trial": 2, "rt": 2802}, "5": {"stimulus": 32, "trial": 5, "rt": 3378}, "4": {"stimulus": 34, "trial": 4, "rt": 2497}, "7": {"stimulus": 16, "trial": 7, "rt": 3179}, "6": {"stimulus": 14, "trial": 6, "rt": 3509}, "9": {"stimulus": 32, "trial": 9, "rt": 3718}, "8": {"stimulus": 16, "trial": 8, "rt": 3385}}, "generalization": {"56": {"stimulus": 5, "trial": 56, "rt": 859, "response": "Alpha"}, "77": {"stimulus": 33, "trial": 77, "rt": 625, "response": "Alpha"}, "54": {"stimulus": 36, "trial": 54, "rt": 1358, "response": "Beta"}, "42": {"stimulus": 73, "trial": 42, "rt": 954, "response": "Beta"}, "48": {"stimulus": 63, "trial": 48, "rt": 870, "response": "Beta"}, "43": {"stimulus": 9, "trial": 43, "rt": 663, "response": "Beta"}, "60": {"stimulus": 3, "trial": 60, "rt": 1774, "response": "Beta"}, "61": {"stimulus": 17, "trial": 61, "rt": 1245, "response": "Alpha"}, "62": {"stimulus": 76, "trial": 62, "rt": 1174, "response": "Alpha"}, "63": {"stimulus": 13, "trial": 63, "rt": 904, "response": "Alpha"}, "64": {"stimulus": 75, "trial": 64, "rt": 867, "response": "Alpha"}, "49": {"stimulus": 37, "trial": 49, "rt": 691, "response": "Beta"}, "66": {"stimulus": 35, "trial": 66, "rt": 643, "response": "Alpha"}, "67": {"stimulus": 26, "trial": 67, "rt": 510, "response": "Alpha"}, "68": {"stimulus": 18, "trial": 68, "rt": 1093, "response": "Beta"}, "69": {"stimulus": 53, "trial": 69, "rt": 1137, "response": "Alpha"}, "80": {"stimulus": 69, "trial": 80, "rt": 779, "response": "Alpha"}, "52": {"stimulus": 50, "trial": 52, "rt": 602, "response": "Alpha"}, "53": {"stimulus": 42, "trial": 53, "rt": 822, "response": "Alpha"}, "24": {"stimulus": 15, "trial": 24, "rt": 1196, "response": "Alpha"}, "25": {"stimulus": 8, "trial": 25, "rt": 1232, "response": "Alpha"}, "26": {"stimulus": 29, "trial": 26, "rt": 1205, "response": "Beta"}, "27": {"stimulus": 79, "trial": 27, "rt": 5356, "response": "Alpha"}, "20": {"stimulus": 77, "trial": 20, "rt": 1165, "response": "Alpha"}, "21": {"stimulus": 25, "trial": 21, "rt": 857, "response": "Alpha"}, "22": {"stimulus": 80, "trial": 22, "rt": 832, "response": "Alpha"}, "23": {"stimulus": 20, "trial": 23, "rt": 1157, "response": "Beta"}, "46": {"stimulus": 1, "trial": 46, "rt": 1042, "response": "Beta"}, "47": {"stimulus": 39, "trial": 47, "rt": 1921, "response": "Alpha"}, "44": {"stimulus": 40, "trial": 44, "rt": 1902, "response": "Alpha"}, "45": {"stimulus": 7, "trial": 45, "rt": 872, "response": "Alpha"}, "28": {"stimulus": 67, "trial": 28, "rt": 1454, "response": "Alpha"}, "29": {"stimulus": 64, "trial": 29, "rt": 1510, "response": "Beta"}, "40": {"stimulus": 23, "trial": 40, "rt": 756, "response": "Alpha"}, "41": {"stimulus": 28, "trial": 41, "rt": 1182, "response": "Beta"}, "1": {"stimulus": 30, "trial": 1, "rt": 2144, "response": "Alpha"}, "0": {"stimulus": 10, "trial": 0, "rt": 2232, "response": "Beta"}, "3": {"stimulus": 43, "trial": 3, "rt": 1239, "response": "Alpha"}, "2": {"stimulus": 58, "trial": 2, "rt": 1740, "response": "Alpha"}, "5": {"stimulus": 70, "trial": 5, "rt": 1273, "response": "Alpha"}, "4": {"stimulus": 49, "trial": 4, "rt": 1338, "response": "Alpha"}, "7": {"stimulus": 55, "trial": 7, "rt": 1142, "response": "Beta"}, "6": {"stimulus": 38, "trial": 6, "rt": 1192, "response": "Beta"}, "9": {"stimulus": 52, "trial": 9, "rt": 1156, "response": "Alpha"}, "8": {"stimulus": 47, "trial": 8, "rt": 1139, "response": "Beta"}, "78": {"stimulus": 27, "trial": 78, "rt": 1293, "response": "Beta"}, "51": {"stimulus": 62, "trial": 51, "rt": 1224, "response": "Alpha"}, "39": {"stimulus": 41, "trial": 39, "rt": 1373, "response": "Alpha"}, "65": {"stimulus": 16, "trial": 65, "rt": 823, "response": "Alpha"}, "76": {"stimulus": 78, "trial": 76, "rt": 1142, "response": "Alpha"}, "75": {"stimulus": 46, "trial": 75, "rt": 1541, "response": "Beta"}, "38": {"stimulus": 34, "trial": 38, "rt": 940, "response": "Alpha"}, "73": {"stimulus": 68, "trial": 73, "rt": 727, "response": "Alpha"}, "72": {"stimulus": 14, "trial": 72, "rt": 1923, "response": "Alpha"}, "71": {"stimulus": 12, "trial": 71, "rt": 1441, "response": "Alpha"}, "70": {"stimulus": 6, "trial": 70, "rt": 632, "response": "Alpha"}, "59": {"stimulus": 71, "trial": 59, "rt": 1210, "response": "Alpha"}, "79": {"stimulus": 31, "trial": 79, "rt": 1273, "response": "Alpha"}, "58": {"stimulus": 72, "trial": 58, "rt": 619, "response": "Beta"}, "11": {"stimulus": 24, "trial": 11, "rt": 1120, "response": "Alpha"}, "10": {"stimulus": 4, "trial": 10, "rt": 1446, "response": "Alpha"}, "13": {"stimulus": 54, "trial": 13, "rt": 1142, "response": "Beta"}, "12": {"stimulus": 44, "trial": 12, "rt": 1127, "response": "Alpha"}, "15": {"stimulus": 51, "trial": 15, "rt": 1071, "response": "Alpha"}, "14": {"stimulus": 57, "trial": 14, "rt": 2740, "response": "Beta"}, "17": {"stimulus": 45, "trial": 17, "rt": 1049, "response": "Beta"}, "16": {"stimulus": 74, "trial": 16, "rt": 1362, "response": "Beta"}, "19": {"stimulus": 59, "trial": 19, "rt": 941, "response": "Alpha"}, "18": {"stimulus": 11, "trial": 18, "rt": 1032, "response": "Beta"}, "31": {"stimulus": 19, "trial": 31, "rt": 940, "response": "Beta"}, "30": {"stimulus": 65, "trial": 30, "rt": 976, "response": "Beta"}, "37": {"stimulus": 2, "trial": 37, "rt": 874, "response": "Beta"}, "36": {"stimulus": 21, "trial": 36, "rt": 1345, "response": "Alpha"}, "35": {"stimulus": 60, "trial": 35, "rt": 812, "response": "Alpha"}, "34": {"stimulus": 66, "trial": 34, "rt": 5592, "response": "Alpha"}, "33": {"stimulus": 32, "trial": 33, "rt": 1224, "response": "Alpha"}, "55": {"stimulus": 22, "trial": 55, "rt": 1792, "response": "Alpha"}, "74": {"stimulus": 61, "trial": 74, "rt": 624, "response": "Alpha"}, "32": {"stimulus": 0, "trial": 32, "rt": 912, "response": "Beta"}, "57": {"stimulus": 56, "trial": 57, "rt": 1299, "response": "Beta"}, "50": {"stimulus": 48, "trial": 50, "rt": 1458, "response": "Alpha"}}}