{"generation": {"1": {"stimulus": 73, "trial": 1, "rt": 5915}, "0": {"stimulus": 78, "trial": 0, "rt": 11618}, "3": {"stimulus": 80, "trial": 3, "rt": 7283}, "2": {"stimulus": 76, "trial": 2, "rt": 11129}}, "info": {"finish": 1488822085826, "participant": 6, "exposed": true, "lab": false, "start": 1488821802821, "counterbalance": 2, "condition": "Cluster", "browser": {"platform": "Win32", "userAgent": "Mozilla/5.0 (Windows NT 6.1; WOW64) AppleWebKit/537.36 (KHTML, like Gecko) Chrome/56.0.2924.87 Safari/537.36"}}, "experiment": {"Paradigm": "TACL", "Stimuli": "Size-Color Squares", "Experiment": "Generating-Categories"}, "observation": {"11": {"stimulus": 16, "trial": 11, "rt": 1163}, "10": {"stimulus": 14, "trial": 10, "rt": 2018}, "1": {"stimulus": 32, "trial": 1, "rt": 1842}, "0": {"stimulus": 14, "trial": 0, "rt": 6249}, "3": {"stimulus": 34, "trial": 3, "rt": 1467}, "2": {"stimulus": 16, "trial": 2, "rt": 1795}, "5": {"stimulus": 16, "trial": 5, "rt": 1403}, "4": {"stimulus": 34, "trial": 4, "rt": 1139}, "7": {"stimulus": 14, "trial": 7, "rt": 1259}, "6": {"stimulus": 32, "trial": 6, "rt": 1395}, "9": {"stimulus": 32, "trial": 9, "rt": 762}, "8": {"stimulus": 34, "trial": 8, "rt": 1114}}, "generalization": {"56": {"stimulus": 11, "trial": 56, "rt": 651, "response": "Alpha"}, "77": {"stimulus": 55, "trial": 77, "rt": 2107, "response": "Beta"}, "54": {"stimulus": 34, "trial": 54, "rt": 1651, "response": "Alpha"}, "42": {"stimulus": 26, "trial": 42, "rt": 762, "response": "Alpha"}, "48": {"stimulus": 5, "trial": 48, "rt": 843, "response": "Alpha"}, "43": {"stimulus": 41, "trial": 43, "rt": 3147, "response": "Alpha"}, "60": {"stimulus": 63, "trial": 60, "rt": 819, "response": "Beta"}, "61": {"stimulus": 60, "trial": 61, "rt": 1267, "response": "Beta"}, "62": {"stimulus": 43, "trial": 62, "rt": 1091, "response": "Alpha"}, "63": {"stimulus": 7, "trial": 63, "rt": 715, "response": "Alpha"}, "64": {"stimulus": 46, "trial": 64, "rt": 1258, "response": "Alpha"}, "49": {"stimulus": 57, "trial": 49, "rt": 1042, "response": "Beta"}, "66": {"stimulus": 19, "trial": 66, "rt": 1059, "response": "Alpha"}, "67": {"stimulus": 69, "trial": 67, "rt": 1059, "response": "Beta"}, "68": {"stimulus": 80, "trial": 68, "rt": 738, "response": "Beta"}, "69": {"stimulus": 78, "trial": 69, "rt": 963, "response": "Beta"}, "80": {"stimulus": 30, "trial": 80, "rt": 1298, "response": "Alpha"}, "52": {"stimulus": 64, "trial": 52, "rt": 915, "response": "Beta"}, "53": {"stimulus": 9, "trial": 53, "rt": 851, "response": "Alpha"}, "24": {"stimulus": 22, "trial": 24, "rt": 1355, "response": "Alpha"}, "25": {"stimulus": 70, "trial": 25, "rt": 986, "response": "Beta"}, "26": {"stimulus": 33, "trial": 26, "rt": 1643, "response": "Alpha"}, "27": {"stimulus": 8, "trial": 27, "rt": 827, "response": "Alpha"}, "20": {"stimulus": 58, "trial": 20, "rt": 1163, "response": "Beta"}, "21": {"stimulus": 16, "trial": 21, "rt": 1027, "response": "Alpha"}, "22": {"stimulus": 51, "trial": 22, "rt": 1612, "response": "Beta"}, "23": {"stimulus": 0, "trial": 23, "rt": 955, "response": "Alpha"}, "46": {"stimulus": 18, "trial": 46, "rt": 1019, "response": "Alpha"}, "47": {"stimulus": 48, "trial": 47, "rt": 1067, "response": "Beta"}, "44": {"stimulus": 2, "trial": 44, "rt": 2523, "response": "Alpha"}, "45": {"stimulus": 73, "trial": 45, "rt": 1051, "response": "Beta"}, "28": {"stimulus": 31, "trial": 28, "rt": 1659, "response": "Alpha"}, "29": {"stimulus": 44, "trial": 29, "rt": 907, "response": "Alpha"}, "40": {"stimulus": 14, "trial": 40, "rt": 771, "response": "Alpha"}, "41": {"stimulus": 53, "trial": 41, "rt": 1276, "response": "Alpha"}, "1": {"stimulus": 76, "trial": 1, "rt": 1115, "response": "Beta"}, "0": {"stimulus": 54, "trial": 0, "rt": 2123, "response": "Beta"}, "3": {"stimulus": 49, "trial": 3, "rt": 947, "response": "Alpha"}, "2": {"stimulus": 25, "trial": 2, "rt": 1163, "response": "Alpha"}, "5": {"stimulus": 50, "trial": 5, "rt": 1090, "response": "Alpha"}, "4": {"stimulus": 52, "trial": 4, "rt": 955, "response": "Alpha"}, "7": {"stimulus": 74, "trial": 7, "rt": 899, "response": "Beta"}, "6": {"stimulus": 17, "trial": 6, "rt": 1202, "response": "Alpha"}, "9": {"stimulus": 71, "trial": 9, "rt": 1267, "response": "Beta"}, "8": {"stimulus": 72, "trial": 8, "rt": 803, "response": "Beta"}, "78": {"stimulus": 37, "trial": 78, "rt": 946, "response": "Alpha"}, "51": {"stimulus": 28, "trial": 51, "rt": 835, "response": "Alpha"}, "39": {"stimulus": 38, "trial": 39, "rt": 1787, "response": "Alpha"}, "65": {"stimulus": 66, "trial": 65, "rt": 963, "response": "Beta"}, "76": {"stimulus": 75, "trial": 76, "rt": 651, "response": "Beta"}, "75": {"stimulus": 79, "trial": 75, "rt": 939, "response": "Beta"}, "38": {"stimulus": 68, "trial": 38, "rt": 875, "response": "Beta"}, "73": {"stimulus": 56, "trial": 73, "rt": 1187, "response": "Beta"}, "72": {"stimulus": 10, "trial": 72, "rt": 819, "response": "Alpha"}, "71": {"stimulus": 20, "trial": 71, "rt": 946, "response": "Alpha"}, "70": {"stimulus": 13, "trial": 70, "rt": 2098, "response": "Alpha"}, "59": {"stimulus": 61, "trial": 59, "rt": 1346, "response": "Beta"}, "79": {"stimulus": 3, "trial": 79, "rt": 722, "response": "Alpha"}, "58": {"stimulus": 36, "trial": 58, "rt": 2067, "response": "Alpha"}, "11": {"stimulus": 27, "trial": 11, "rt": 1300, "response": "Alpha"}, "10": {"stimulus": 1, "trial": 10, "rt": 939, "response": "Alpha"}, "13": {"stimulus": 24, "trial": 13, "rt": 787, "response": "Alpha"}, "12": {"stimulus": 23, "trial": 12, "rt": 859, "response": "Alpha"}, "15": {"stimulus": 12, "trial": 15, "rt": 898, "response": "Alpha"}, "14": {"stimulus": 45, "trial": 14, "rt": 1626, "response": "Alpha"}, "17": {"stimulus": 4, "trial": 17, "rt": 1003, "response": "Alpha"}, "16": {"stimulus": 62, "trial": 16, "rt": 834, "response": "Beta"}, "19": {"stimulus": 77, "trial": 19, "rt": 971, "response": "Beta"}, "18": {"stimulus": 35, "trial": 18, "rt": 1419, "response": "Alpha"}, "31": {"stimulus": 65, "trial": 31, "rt": 1003, "response": "Beta"}, "30": {"stimulus": 40, "trial": 30, "rt": 876, "response": "Alpha"}, "37": {"stimulus": 29, "trial": 37, "rt": 2043, "response": "Alpha"}, "36": {"stimulus": 47, "trial": 36, "rt": 3515, "response": "Alpha"}, "35": {"stimulus": 15, "trial": 35, "rt": 819, "response": "Alpha"}, "34": {"stimulus": 67, "trial": 34, "rt": 1066, "response": "Beta"}, "33": {"stimulus": 32, "trial": 33, "rt": 1378, "response": "Alpha"}, "55": {"stimulus": 21, "trial": 55, "rt": 795, "response": "Alpha"}, "74": {"stimulus": 42, "trial": 74, "rt": 1059, "response": "Alpha"}, "32": {"stimulus": 39, "trial": 32, "rt": 1276, "response": "Alpha"}, "57": {"stimulus": 6, "trial": 57, "rt": 635, "response": "Alpha"}, "50": {"stimulus": 59, "trial": 50, "rt": 843, "response": "Beta"}}}