{"generation": {"1": {"stimulus": 80, "trial": 1, "rt": 7902}, "0": {"stimulus": 72, "trial": 0, "rt": 16164}, "3": {"stimulus": 74, "trial": 3, "rt": 8995}, "2": {"stimulus": 78, "trial": 2, "rt": 4799}}, "info": {"finish": 1488822173705, "participant": 60, "exposed": true, "lab": false, "start": 1488821943961, "counterbalance": 3, "condition": "Row", "browser": {"platform": "Win32", "userAgent": "Mozilla/5.0 (Windows NT 10.0; WOW64) AppleWebKit/537.36 (KHTML, like Gecko) Chrome/56.0.2924.87 Safari/537.36"}}, "experiment": {"Paradigm": "TACL", "Stimuli": "Size-Color Squares", "Experiment": "Generating-Categories"}, "observation": {"11": {"stimulus": 10, "trial": 11, "rt": 1504}, "10": {"stimulus": 16, "trial": 10, "rt": 1141}, "1": {"stimulus": 14, "trial": 1, "rt": 2246}, "0": {"stimulus": 16, "trial": 0, "rt": 3214}, "3": {"stimulus": 12, "trial": 3, "rt": 1245}, "2": {"stimulus": 10, "trial": 2, "rt": 1237}, "5": {"stimulus": 12, "trial": 5, "rt": 1172}, "4": {"stimulus": 16, "trial": 4, "rt": 1426}, "7": {"stimulus": 14, "trial": 7, "rt": 1444}, "6": {"stimulus": 10, "trial": 6, "rt": 1604}, "9": {"stimulus": 12, "trial": 9, "rt": 1166}, "8": {"stimulus": 14, "trial": 8, "rt": 1232}}, "generalization": {"56": {"stimulus": 36, "trial": 56, "rt": 1555, "response": "Alpha"}, "77": {"stimulus": 58, "trial": 77, "rt": 1048, "response": "Beta"}, "54": {"stimulus": 65, "trial": 54, "rt": 788, "response": "Beta"}, "42": {"stimulus": 77, "trial": 42, "rt": 638, "response": "Beta"}, "48": {"stimulus": 73, "trial": 48, "rt": 891, "response": "Beta"}, "43": {"stimulus": 53, "trial": 43, "rt": 487, "response": "Beta"}, "60": {"stimulus": 78, "trial": 60, "rt": 431, "response": "Beta"}, "61": {"stimulus": 63, "trial": 61, "rt": 767, "response": "Beta"}, "62": {"stimulus": 47, "trial": 62, "rt": 2203, "response": "Beta"}, "63": {"stimulus": 42, "trial": 63, "rt": 1971, "response": "Beta"}, "64": {"stimulus": 74, "trial": 64, "rt": 1115, "response": "Beta"}, "49": {"stimulus": 32, "trial": 49, "rt": 909, "response": "Alpha"}, "66": {"stimulus": 38, "trial": 66, "rt": 1123, "response": "Beta"}, "67": {"stimulus": 68, "trial": 67, "rt": 589, "response": "Beta"}, "68": {"stimulus": 60, "trial": 68, "rt": 510, "response": "Beta"}, "69": {"stimulus": 37, "trial": 69, "rt": 1072, "response": "Beta"}, "80": {"stimulus": 21, "trial": 80, "rt": 1118, "response": "Alpha"}, "52": {"stimulus": 3, "trial": 52, "rt": 789, "response": "Alpha"}, "53": {"stimulus": 19, "trial": 53, "rt": 522, "response": "Alpha"}, "24": {"stimulus": 71, "trial": 24, "rt": 730, "response": "Beta"}, "25": {"stimulus": 80, "trial": 25, "rt": 2413, "response": "Beta"}, "26": {"stimulus": 23, "trial": 26, "rt": 1210, "response": "Alpha"}, "27": {"stimulus": 18, "trial": 27, "rt": 889, "response": "Alpha"}, "20": {"stimulus": 41, "trial": 20, "rt": 847, "response": "Beta"}, "21": {"stimulus": 0, "trial": 21, "rt": 955, "response": "Alpha"}, "22": {"stimulus": 30, "trial": 22, "rt": 1381, "response": "Alpha"}, "23": {"stimulus": 46, "trial": 23, "rt": 1046, "response": "Beta"}, "46": {"stimulus": 52, "trial": 46, "rt": 2274, "response": "Beta"}, "47": {"stimulus": 6, "trial": 47, "rt": 884, "response": "Alpha"}, "44": {"stimulus": 15, "trial": 44, "rt": 859, "response": "Alpha"}, "45": {"stimulus": 31, "trial": 45, "rt": 754, "response": "Alpha"}, "28": {"stimulus": 40, "trial": 28, "rt": 1660, "response": "Alpha"}, "29": {"stimulus": 35, "trial": 29, "rt": 1447, "response": "Alpha"}, "40": {"stimulus": 69, "trial": 40, "rt": 457, "response": "Beta"}, "41": {"stimulus": 50, "trial": 41, "rt": 1118, "response": "Beta"}, "1": {"stimulus": 28, "trial": 1, "rt": 1280, "response": "Alpha"}, "0": {"stimulus": 7, "trial": 0, "rt": 1499, "response": "Alpha"}, "3": {"stimulus": 8, "trial": 3, "rt": 1145, "response": "Beta"}, "2": {"stimulus": 22, "trial": 2, "rt": 1025, "response": "Alpha"}, "5": {"stimulus": 45, "trial": 5, "rt": 733, "response": "Alpha"}, "4": {"stimulus": 48, "trial": 4, "rt": 3687, "response": "Alpha"}, "7": {"stimulus": 76, "trial": 7, "rt": 1308, "response": "Beta"}, "6": {"stimulus": 10, "trial": 6, "rt": 1571, "response": "Beta"}, "9": {"stimulus": 44, "trial": 9, "rt": 859, "response": "Alpha"}, "8": {"stimulus": 17, "trial": 8, "rt": 632, "response": "Alpha"}, "78": {"stimulus": 55, "trial": 78, "rt": 942, "response": "Beta"}, "51": {"stimulus": 57, "trial": 51, "rt": 946, "response": "Beta"}, "39": {"stimulus": 25, "trial": 39, "rt": 1042, "response": "Alpha"}, "65": {"stimulus": 79, "trial": 65, "rt": 680, "response": "Beta"}, "76": {"stimulus": 20, "trial": 76, "rt": 1157, "response": "Alpha"}, "75": {"stimulus": 67, "trial": 75, "rt": 501, "response": "Beta"}, "38": {"stimulus": 54, "trial": 38, "rt": 557, "response": "Beta"}, "73": {"stimulus": 66, "trial": 73, "rt": 856, "response": "Beta"}, "72": {"stimulus": 9, "trial": 72, "rt": 491, "response": "Alpha"}, "71": {"stimulus": 1, "trial": 71, "rt": 605, "response": "Alpha"}, "70": {"stimulus": 24, "trial": 70, "rt": 911, "response": "Alpha"}, "59": {"stimulus": 75, "trial": 59, "rt": 418, "response": "Beta"}, "79": {"stimulus": 14, "trial": 79, "rt": 932, "response": "Alpha"}, "58": {"stimulus": 64, "trial": 58, "rt": 471, "response": "Beta"}, "11": {"stimulus": 27, "trial": 11, "rt": 909, "response": "Alpha"}, "10": {"stimulus": 43, "trial": 10, "rt": 847, "response": "Alpha"}, "13": {"stimulus": 34, "trial": 13, "rt": 3441, "response": "Alpha"}, "12": {"stimulus": 62, "trial": 12, "rt": 1076, "response": "Beta"}, "15": {"stimulus": 12, "trial": 15, "rt": 696, "response": "Alpha"}, "14": {"stimulus": 16, "trial": 14, "rt": 1183, "response": "Alpha"}, "17": {"stimulus": 39, "trial": 17, "rt": 1411, "response": "Alpha"}, "16": {"stimulus": 26, "trial": 16, "rt": 863, "response": "Alpha"}, "19": {"stimulus": 49, "trial": 19, "rt": 1395, "response": "Beta"}, "18": {"stimulus": 2, "trial": 18, "rt": 866, "response": "Alpha"}, "31": {"stimulus": 13, "trial": 31, "rt": 1085, "response": "Alpha"}, "30": {"stimulus": 59, "trial": 30, "rt": 743, "response": "Beta"}, "37": {"stimulus": 51, "trial": 37, "rt": 398, "response": "Beta"}, "36": {"stimulus": 33, "trial": 36, "rt": 1331, "response": "Alpha"}, "35": {"stimulus": 4, "trial": 35, "rt": 1687, "response": "Alpha"}, "34": {"stimulus": 11, "trial": 34, "rt": 1870, "response": "Alpha"}, "33": {"stimulus": 29, "trial": 33, "rt": 1239, "response": "Alpha"}, "55": {"stimulus": 61, "trial": 55, "rt": 683, "response": "Beta"}, "74": {"stimulus": 70, "trial": 74, "rt": 359, "response": "Beta"}, "32": {"stimulus": 5, "trial": 32, "rt": 559, "response": "Alpha"}, "57": {"stimulus": 56, "trial": 57, "rt": 616, "response": "Beta"}, "50": {"stimulus": 72, "trial": 50, "rt": 1338, "response": "Beta"}}}