{"generation": {"1": {"stimulus": 80, "trial": 1, "rt": 15025}, "0": {"stimulus": 75, "trial": 0, "rt": 17067}, "3": {"stimulus": 78, "trial": 3, "rt": 6465}, "2": {"stimulus": 72, "trial": 2, "rt": 3699}}, "info": {"finish": 1488822197206, "participant": 61, "exposed": true, "lab": false, "start": 1488821970435, "counterbalance": 6, "condition": "Row", "browser": {"platform": "Win32", "userAgent": "Mozilla/5.0 (Windows NT 6.1; WOW64) AppleWebKit/537.36 (KHTML, like Gecko) Chrome/56.0.2924.87 Safari/537.36"}}, "experiment": {"Paradigm": "TACL", "Stimuli": "Size-Color Squares", "Experiment": "Generating-Categories"}, "observation": {"11": {"stimulus": 14, "trial": 11, "rt": 2827}, "10": {"stimulus": 16, "trial": 10, "rt": 1027}, "1": {"stimulus": 10, "trial": 1, "rt": 2187}, "0": {"stimulus": 16, "trial": 0, "rt": 15379}, "3": {"stimulus": 14, "trial": 3, "rt": 2107}, "2": {"stimulus": 12, "trial": 2, "rt": 1923}, "5": {"stimulus": 10, "trial": 5, "rt": 1259}, "4": {"stimulus": 12, "trial": 4, "rt": 1802}, "7": {"stimulus": 14, "trial": 7, "rt": 1484}, "6": {"stimulus": 16, "trial": 6, "rt": 1203}, "9": {"stimulus": 12, "trial": 9, "rt": 1403}, "8": {"stimulus": 10, "trial": 8, "rt": 1051}}, "generalization": {"56": {"stimulus": 20, "trial": 56, "rt": 530, "response": "Alpha"}, "77": {"stimulus": 45, "trial": 77, "rt": 503, "response": "Beta"}, "54": {"stimulus": 22, "trial": 54, "rt": 1108, "response": "Alpha"}, "42": {"stimulus": 67, "trial": 42, "rt": 440, "response": "Alpha"}, "48": {"stimulus": 50, "trial": 48, "rt": 764, "response": "Beta"}, "43": {"stimulus": 53, "trial": 43, "rt": 821, "response": "Alpha"}, "60": {"stimulus": 77, "trial": 60, "rt": 781, "response": "Beta"}, "61": {"stimulus": 72, "trial": 61, "rt": 482, "response": "Beta"}, "62": {"stimulus": 0, "trial": 62, "rt": 724, "response": "Alpha"}, "63": {"stimulus": 14, "trial": 63, "rt": 486, "response": "Alpha"}, "64": {"stimulus": 61, "trial": 64, "rt": 1685, "response": "Beta"}, "49": {"stimulus": 73, "trial": 49, "rt": 661, "response": "Beta"}, "66": {"stimulus": 48, "trial": 66, "rt": 480, "response": "Beta"}, "67": {"stimulus": 40, "trial": 67, "rt": 417, "response": "Alpha"}, "68": {"stimulus": 69, "trial": 68, "rt": 497, "response": "Beta"}, "69": {"stimulus": 57, "trial": 69, "rt": 429, "response": "Beta"}, "80": {"stimulus": 12, "trial": 80, "rt": 442, "response": "Alpha"}, "52": {"stimulus": 9, "trial": 52, "rt": 524, "response": "Alpha"}, "53": {"stimulus": 41, "trial": 53, "rt": 1027, "response": "Alpha"}, "24": {"stimulus": 5, "trial": 24, "rt": 666, "response": "Alpha"}, "25": {"stimulus": 19, "trial": 25, "rt": 836, "response": "Alpha"}, "26": {"stimulus": 39, "trial": 26, "rt": 1290, "response": "Alpha"}, "27": {"stimulus": 34, "trial": 27, "rt": 747, "response": "Alpha"}, "20": {"stimulus": 11, "trial": 20, "rt": 1331, "response": "Alpha"}, "21": {"stimulus": 17, "trial": 21, "rt": 795, "response": "Alpha"}, "22": {"stimulus": 71, "trial": 22, "rt": 498, "response": "Beta"}, "23": {"stimulus": 27, "trial": 23, "rt": 1115, "response": "Alpha"}, "46": {"stimulus": 16, "trial": 46, "rt": 553, "response": "Alpha"}, "47": {"stimulus": 52, "trial": 47, "rt": 784, "response": "Beta"}, "44": {"stimulus": 59, "trial": 44, "rt": 910, "response": "Beta"}, "45": {"stimulus": 47, "trial": 45, "rt": 435, "response": "Beta"}, "28": {"stimulus": 63, "trial": 28, "rt": 667, "response": "Beta"}, "29": {"stimulus": 79, "trial": 29, "rt": 539, "response": "Beta"}, "40": {"stimulus": 46, "trial": 40, "rt": 477, "response": "Alpha"}, "41": {"stimulus": 44, "trial": 41, "rt": 493, "response": "Alpha"}, "1": {"stimulus": 31, "trial": 1, "rt": 1243, "response": "Alpha"}, "0": {"stimulus": 54, "trial": 0, "rt": 1298, "response": "Beta"}, "3": {"stimulus": 56, "trial": 3, "rt": 651, "response": "Beta"}, "2": {"stimulus": 36, "trial": 2, "rt": 1530, "response": "Alpha"}, "5": {"stimulus": 55, "trial": 5, "rt": 419, "response": "Beta"}, "4": {"stimulus": 29, "trial": 4, "rt": 467, "response": "Alpha"}, "7": {"stimulus": 51, "trial": 7, "rt": 731, "response": "Alpha"}, "6": {"stimulus": 80, "trial": 6, "rt": 763, "response": "Beta"}, "9": {"stimulus": 33, "trial": 9, "rt": 1010, "response": "Alpha"}, "8": {"stimulus": 13, "trial": 8, "rt": 747, "response": "Alpha"}, "78": {"stimulus": 8, "trial": 78, "rt": 845, "response": "Alpha"}, "51": {"stimulus": 68, "trial": 51, "rt": 604, "response": "Beta"}, "39": {"stimulus": 49, "trial": 39, "rt": 1277, "response": "Alpha"}, "65": {"stimulus": 35, "trial": 65, "rt": 910, "response": "Alpha"}, "76": {"stimulus": 62, "trial": 76, "rt": 834, "response": "Beta"}, "75": {"stimulus": 2, "trial": 75, "rt": 500, "response": "Alpha"}, "38": {"stimulus": 70, "trial": 38, "rt": 5542, "response": "Beta"}, "73": {"stimulus": 30, "trial": 73, "rt": 808, "response": "Alpha"}, "72": {"stimulus": 66, "trial": 72, "rt": 443, "response": "Beta"}, "71": {"stimulus": 64, "trial": 71, "rt": 823, "response": "Beta"}, "70": {"stimulus": 4, "trial": 70, "rt": 710, "response": "Alpha"}, "59": {"stimulus": 25, "trial": 59, "rt": 548, "response": "Alpha"}, "79": {"stimulus": 21, "trial": 79, "rt": 846, "response": "Alpha"}, "58": {"stimulus": 18, "trial": 58, "rt": 543, "response": "Alpha"}, "11": {"stimulus": 15, "trial": 11, "rt": 1338, "response": "Alpha"}, "10": {"stimulus": 78, "trial": 10, "rt": 627, "response": "Beta"}, "13": {"stimulus": 58, "trial": 13, "rt": 635, "response": "Beta"}, "12": {"stimulus": 32, "trial": 12, "rt": 836, "response": "Alpha"}, "15": {"stimulus": 76, "trial": 15, "rt": 578, "response": "Beta"}, "14": {"stimulus": 6, "trial": 14, "rt": 699, "response": "Alpha"}, "17": {"stimulus": 24, "trial": 17, "rt": 1019, "response": "Alpha"}, "16": {"stimulus": 75, "trial": 16, "rt": 779, "response": "Beta"}, "19": {"stimulus": 65, "trial": 19, "rt": 795, "response": "Beta"}, "18": {"stimulus": 28, "trial": 18, "rt": 635, "response": "Alpha"}, "31": {"stimulus": 26, "trial": 31, "rt": 818, "response": "Alpha"}, "30": {"stimulus": 60, "trial": 30, "rt": 499, "response": "Beta"}, "37": {"stimulus": 43, "trial": 37, "rt": 1611, "response": "Alpha"}, "36": {"stimulus": 74, "trial": 36, "rt": 699, "response": "Beta"}, "35": {"stimulus": 7, "trial": 35, "rt": 458, "response": "Alpha"}, "34": {"stimulus": 1, "trial": 34, "rt": 3370, "response": "Alpha"}, "33": {"stimulus": 38, "trial": 33, "rt": 579, "response": "Alpha"}, "55": {"stimulus": 3, "trial": 55, "rt": 508, "response": "Alpha"}, "74": {"stimulus": 37, "trial": 74, "rt": 787, "response": "Alpha"}, "32": {"stimulus": 42, "trial": 32, "rt": 683, "response": "Alpha"}, "57": {"stimulus": 23, "trial": 57, "rt": 634, "response": "Alpha"}, "50": {"stimulus": 10, "trial": 50, "rt": 627, "response": "Alpha"}}}