{"generation": {"1": {"stimulus": 51, "trial": 1, "rt": 437811}, "0": {"stimulus": 17, "trial": 0, "rt": 20547}, "3": {"stimulus": 80, "trial": 3, "rt": 6890}, "2": {"stimulus": 0, "trial": 2, "rt": 19620}}, "info": {"finish": 1488822855611, "participant": 62, "exposed": true, "lab": false, "start": 1488821835521, "counterbalance": 3, "condition": "XOR", "browser": {"platform": "Win32", "userAgent": "Mozilla/5.0 (Windows NT 10.0; Win64; x64) AppleWebKit/537.36 (KHTML, like Gecko) Chrome/56.0.2924.87 Safari/537.36"}}, "experiment": {"Paradigm": "TACL", "Stimuli": "Size-Color Squares", "Experiment": "Generating-Categories"}, "observation": {"11": {"stimulus": 70, "trial": 11, "rt": 1548}, "10": {"stimulus": 80, "trial": 10, "rt": 1299}, "1": {"stimulus": 0, "trial": 1, "rt": 3474}, "0": {"stimulus": 80, "trial": 0, "rt": 2544}, "3": {"stimulus": 70, "trial": 3, "rt": 1739}, "2": {"stimulus": 10, "trial": 2, "rt": 2587}, "5": {"stimulus": 10, "trial": 5, "rt": 1389}, "4": {"stimulus": 0, "trial": 4, "rt": 1283}, "7": {"stimulus": 70, "trial": 7, "rt": 994}, "6": {"stimulus": 80, "trial": 6, "rt": 1580}, "9": {"stimulus": 0, "trial": 9, "rt": 1292}, "8": {"stimulus": 10, "trial": 8, "rt": 1076}}, "generalization": {"56": {"stimulus": 73, "trial": 56, "rt": 483, "response": "Alpha"}, "77": {"stimulus": 42, "trial": 77, "rt": 443, "response": "Alpha"}, "54": {"stimulus": 71, "trial": 54, "rt": 427, "response": "Alpha"}, "42": {"stimulus": 44, "trial": 42, "rt": 948, "response": "Alpha"}, "48": {"stimulus": 32, "trial": 48, "rt": 12195, "response": "Alpha"}, "43": {"stimulus": 50, "trial": 43, "rt": 3211, "response": "Alpha"}, "60": {"stimulus": 34, "trial": 60, "rt": 468, "response": "Alpha"}, "61": {"stimulus": 8, "trial": 61, "rt": 452, "response": "Alpha"}, "62": {"stimulus": 74, "trial": 62, "rt": 427, "response": "Alpha"}, "63": {"stimulus": 80, "trial": 63, "rt": 429, "response": "Alpha"}, "64": {"stimulus": 38, "trial": 64, "rt": 468, "response": "Alpha"}, "49": {"stimulus": 78, "trial": 49, "rt": 453, "response": "Alpha"}, "66": {"stimulus": 17, "trial": 66, "rt": 460, "response": "Alpha"}, "67": {"stimulus": 72, "trial": 67, "rt": 451, "response": "Alpha"}, "68": {"stimulus": 39, "trial": 68, "rt": 459, "response": "Alpha"}, "69": {"stimulus": 12, "trial": 69, "rt": 476, "response": "Alpha"}, "80": {"stimulus": 49, "trial": 80, "rt": 412, "response": "Alpha"}, "52": {"stimulus": 33, "trial": 52, "rt": 388, "response": "Alpha"}, "53": {"stimulus": 58, "trial": 53, "rt": 443, "response": "Alpha"}, "24": {"stimulus": 30, "trial": 24, "rt": 564, "response": "Alpha"}, "25": {"stimulus": 26, "trial": 25, "rt": 1739, "response": "Alpha"}, "26": {"stimulus": 77, "trial": 26, "rt": 628, "response": "Alpha"}, "27": {"stimulus": 75, "trial": 27, "rt": 532, "response": "Alpha"}, "20": {"stimulus": 9, "trial": 20, "rt": 530, "response": "Alpha"}, "21": {"stimulus": 20, "trial": 21, "rt": 723, "response": "Alpha"}, "22": {"stimulus": 47, "trial": 22, "rt": 660, "response": "Alpha"}, "23": {"stimulus": 31, "trial": 23, "rt": 12828, "response": "Alpha"}, "46": {"stimulus": 35, "trial": 46, "rt": 579, "response": "Alpha"}, "47": {"stimulus": 18, "trial": 47, "rt": 707, "response": "Alpha"}, "44": {"stimulus": 27, "trial": 44, "rt": 676, "response": "Alpha"}, "45": {"stimulus": 59, "trial": 45, "rt": 604, "response": "Alpha"}, "28": {"stimulus": 55, "trial": 28, "rt": 508, "response": "Alpha"}, "29": {"stimulus": 60, "trial": 29, "rt": 516, "response": "Alpha"}, "40": {"stimulus": 21, "trial": 40, "rt": 468, "response": "Alpha"}, "41": {"stimulus": 69, "trial": 41, "rt": 2211, "response": "Alpha"}, "1": {"stimulus": 64, "trial": 1, "rt": 1210, "response": "Beta"}, "0": {"stimulus": 62, "trial": 0, "rt": 2123, "response": "Alpha"}, "3": {"stimulus": 48, "trial": 3, "rt": 651, "response": "Alpha"}, "2": {"stimulus": 11, "trial": 2, "rt": 8940, "response": "Alpha"}, "5": {"stimulus": 45, "trial": 5, "rt": 642, "response": "Alpha"}, "4": {"stimulus": 10, "trial": 4, "rt": 669, "response": "Alpha"}, "7": {"stimulus": 61, "trial": 7, "rt": 515, "response": "Alpha"}, "6": {"stimulus": 40, "trial": 6, "rt": 573, "response": "Alpha"}, "9": {"stimulus": 54, "trial": 9, "rt": 483, "response": "Alpha"}, "8": {"stimulus": 0, "trial": 8, "rt": 507, "response": "Alpha"}, "78": {"stimulus": 1, "trial": 78, "rt": 674, "response": "Alpha"}, "51": {"stimulus": 63, "trial": 51, "rt": 388, "response": "Alpha"}, "39": {"stimulus": 14, "trial": 39, "rt": 531, "response": "Alpha"}, "65": {"stimulus": 41, "trial": 65, "rt": 458, "response": "Alpha"}, "76": {"stimulus": 43, "trial": 76, "rt": 460, "response": "Alpha"}, "75": {"stimulus": 53, "trial": 75, "rt": 467, "response": "Alpha"}, "38": {"stimulus": 28, "trial": 38, "rt": 739, "response": "Alpha"}, "73": {"stimulus": 36, "trial": 73, "rt": 476, "response": "Alpha"}, "72": {"stimulus": 3, "trial": 72, "rt": 481, "response": "Alpha"}, "71": {"stimulus": 76, "trial": 71, "rt": 1284, "response": "Alpha"}, "70": {"stimulus": 67, "trial": 70, "rt": 476, "response": "Alpha"}, "59": {"stimulus": 29, "trial": 59, "rt": 444, "response": "Alpha"}, "79": {"stimulus": 23, "trial": 79, "rt": 452, "response": "Alpha"}, "58": {"stimulus": 7, "trial": 58, "rt": 427, "response": "Alpha"}, "11": {"stimulus": 79, "trial": 11, "rt": 635, "response": "Alpha"}, "10": {"stimulus": 66, "trial": 10, "rt": 484, "response": "Alpha"}, "13": {"stimulus": 57, "trial": 13, "rt": 546, "response": "Alpha"}, "12": {"stimulus": 25, "trial": 12, "rt": 573, "response": "Alpha"}, "15": {"stimulus": 56, "trial": 15, "rt": 547, "response": "Alpha"}, "14": {"stimulus": 46, "trial": 14, "rt": 612, "response": "Alpha"}, "17": {"stimulus": 37, "trial": 17, "rt": 531, "response": "Alpha"}, "16": {"stimulus": 15, "trial": 16, "rt": 540, "response": "Alpha"}, "19": {"stimulus": 24, "trial": 19, "rt": 956, "response": "Alpha"}, "18": {"stimulus": 51, "trial": 18, "rt": 507, "response": "Alpha"}, "31": {"stimulus": 68, "trial": 31, "rt": 1979, "response": "Alpha"}, "30": {"stimulus": 6, "trial": 30, "rt": 8580, "response": "Alpha"}, "37": {"stimulus": 65, "trial": 37, "rt": 523, "response": "Alpha"}, "36": {"stimulus": 5, "trial": 36, "rt": 476, "response": "Alpha"}, "35": {"stimulus": 13, "trial": 35, "rt": 555, "response": "Alpha"}, "34": {"stimulus": 52, "trial": 34, "rt": 828, "response": "Alpha"}, "33": {"stimulus": 70, "trial": 33, "rt": 522, "response": "Alpha"}, "55": {"stimulus": 19, "trial": 55, "rt": 8418, "response": "Alpha"}, "74": {"stimulus": 2, "trial": 74, "rt": 443, "response": "Alpha"}, "32": {"stimulus": 22, "trial": 32, "rt": 861, "response": "Alpha"}, "57": {"stimulus": 16, "trial": 57, "rt": 412, "response": "Alpha"}, "50": {"stimulus": 4, "trial": 50, "rt": 474, "response": "Alpha"}}}