{"generation": {"1": {"stimulus": 3, "trial": 1, "rt": 3924}, "0": {"stimulus": 0, "trial": 0, "rt": 11087}, "3": {"stimulus": 1, "trial": 3, "rt": 5191}, "2": {"stimulus": 2, "trial": 2, "rt": 7480}}, "info": {"finish": 1488822252148, "participant": 63, "exposed": true, "lab": false, "start": 1488821989408, "counterbalance": 7, "condition": "Row", "browser": {"platform": "Win32", "userAgent": "Mozilla/5.0 (Windows NT 10.0; Win64; x64) AppleWebKit/537.36 (KHTML, like Gecko) Chrome/56.0.2924.87 Safari/537.36"}}, "experiment": {"Paradigm": "TACL", "Stimuli": "Size-Color Squares", "Experiment": "Generating-Categories"}, "observation": {"11": {"stimulus": 16, "trial": 11, "rt": 1955}, "10": {"stimulus": 12, "trial": 10, "rt": 2030}, "1": {"stimulus": 14, "trial": 1, "rt": 4455}, "0": {"stimulus": 12, "trial": 0, "rt": 2834}, "3": {"stimulus": 16, "trial": 3, "rt": 1921}, "2": {"stimulus": 10, "trial": 2, "rt": 2970}, "5": {"stimulus": 16, "trial": 5, "rt": 1485}, "4": {"stimulus": 10, "trial": 4, "rt": 1846}, "7": {"stimulus": 14, "trial": 7, "rt": 1574}, "6": {"stimulus": 12, "trial": 6, "rt": 1447}, "9": {"stimulus": 10, "trial": 9, "rt": 2966}, "8": {"stimulus": 14, "trial": 8, "rt": 1494}}, "generalization": {"56": {"stimulus": 30, "trial": 56, "rt": 1272, "response": "Beta"}, "77": {"stimulus": 9, "trial": 77, "rt": 604, "response": "Alpha"}, "54": {"stimulus": 23, "trial": 54, "rt": 1324, "response": "Beta"}, "42": {"stimulus": 27, "trial": 42, "rt": 738, "response": "Alpha"}, "48": {"stimulus": 21, "trial": 48, "rt": 837, "response": "Beta"}, "43": {"stimulus": 31, "trial": 43, "rt": 1311, "response": "Beta"}, "60": {"stimulus": 22, "trial": 60, "rt": 2112, "response": "Beta"}, "61": {"stimulus": 65, "trial": 61, "rt": 923, "response": "Alpha"}, "62": {"stimulus": 55, "trial": 62, "rt": 1521, "response": "Alpha"}, "63": {"stimulus": 79, "trial": 63, "rt": 930, "response": "Alpha"}, "64": {"stimulus": 28, "trial": 64, "rt": 1539, "response": "Beta"}, "49": {"stimulus": 48, "trial": 49, "rt": 1544, "response": "Alpha"}, "66": {"stimulus": 7, "trial": 66, "rt": 1055, "response": "Beta"}, "67": {"stimulus": 75, "trial": 67, "rt": 1237, "response": "Alpha"}, "68": {"stimulus": 34, "trial": 68, "rt": 2005, "response": "Beta"}, "69": {"stimulus": 29, "trial": 69, "rt": 1065, "response": "Beta"}, "80": {"stimulus": 13, "trial": 80, "rt": 1005, "response": "Beta"}, "52": {"stimulus": 49, "trial": 52, "rt": 1406, "response": "Alpha"}, "53": {"stimulus": 67, "trial": 53, "rt": 935, "response": "Alpha"}, "24": {"stimulus": 52, "trial": 24, "rt": 919, "response": "Alpha"}, "25": {"stimulus": 10, "trial": 25, "rt": 1414, "response": "Beta"}, "26": {"stimulus": 41, "trial": 26, "rt": 1241, "response": "Alpha"}, "27": {"stimulus": 63, "trial": 27, "rt": 1240, "response": "Alpha"}, "20": {"stimulus": 66, "trial": 20, "rt": 1051, "response": "Alpha"}, "21": {"stimulus": 26, "trial": 21, "rt": 1530, "response": "Beta"}, "22": {"stimulus": 51, "trial": 22, "rt": 1638, "response": "Alpha"}, "23": {"stimulus": 57, "trial": 23, "rt": 817, "response": "Alpha"}, "46": {"stimulus": 14, "trial": 46, "rt": 1364, "response": "Beta"}, "47": {"stimulus": 32, "trial": 47, "rt": 1640, "response": "Beta"}, "44": {"stimulus": 80, "trial": 44, "rt": 896, "response": "Alpha"}, "45": {"stimulus": 38, "trial": 45, "rt": 1015, "response": "Alpha"}, "28": {"stimulus": 70, "trial": 28, "rt": 824, "response": "Alpha"}, "29": {"stimulus": 15, "trial": 29, "rt": 1323, "response": "Beta"}, "40": {"stimulus": 53, "trial": 40, "rt": 741, "response": "Alpha"}, "41": {"stimulus": 46, "trial": 41, "rt": 754, "response": "Alpha"}, "1": {"stimulus": 58, "trial": 1, "rt": 1882, "response": "Alpha"}, "0": {"stimulus": 17, "trial": 0, "rt": 3304, "response": "Alpha"}, "3": {"stimulus": 45, "trial": 3, "rt": 2355, "response": "Alpha"}, "2": {"stimulus": 16, "trial": 2, "rt": 2882, "response": "Alpha"}, "5": {"stimulus": 78, "trial": 5, "rt": 1975, "response": "Alpha"}, "4": {"stimulus": 25, "trial": 4, "rt": 1839, "response": "Alpha"}, "7": {"stimulus": 61, "trial": 7, "rt": 1181, "response": "Alpha"}, "6": {"stimulus": 3, "trial": 6, "rt": 1139, "response": "Beta"}, "9": {"stimulus": 6, "trial": 9, "rt": 2092, "response": "Beta"}, "8": {"stimulus": 54, "trial": 8, "rt": 790, "response": "Alpha"}, "78": {"stimulus": 59, "trial": 78, "rt": 948, "response": "Alpha"}, "51": {"stimulus": 11, "trial": 51, "rt": 1263, "response": "Beta"}, "39": {"stimulus": 62, "trial": 39, "rt": 806, "response": "Alpha"}, "65": {"stimulus": 4, "trial": 65, "rt": 1154, "response": "Beta"}, "76": {"stimulus": 40, "trial": 76, "rt": 1205, "response": "Alpha"}, "75": {"stimulus": 24, "trial": 75, "rt": 1366, "response": "Beta"}, "38": {"stimulus": 72, "trial": 38, "rt": 1327, "response": "Alpha"}, "73": {"stimulus": 50, "trial": 73, "rt": 837, "response": "Alpha"}, "72": {"stimulus": 60, "trial": 72, "rt": 1020, "response": "Alpha"}, "71": {"stimulus": 56, "trial": 71, "rt": 1677, "response": "Alpha"}, "70": {"stimulus": 33, "trial": 70, "rt": 1060, "response": "Beta"}, "59": {"stimulus": 74, "trial": 59, "rt": 864, "response": "Alpha"}, "79": {"stimulus": 20, "trial": 79, "rt": 1424, "response": "Beta"}, "58": {"stimulus": 73, "trial": 58, "rt": 1304, "response": "Alpha"}, "11": {"stimulus": 69, "trial": 11, "rt": 2042, "response": "Alpha"}, "10": {"stimulus": 35, "trial": 10, "rt": 1600, "response": "Alpha"}, "13": {"stimulus": 39, "trial": 13, "rt": 2544, "response": "Beta"}, "12": {"stimulus": 19, "trial": 12, "rt": 1302, "response": "Beta"}, "15": {"stimulus": 76, "trial": 15, "rt": 796, "response": "Alpha"}, "14": {"stimulus": 42, "trial": 14, "rt": 2286, "response": "Beta"}, "17": {"stimulus": 71, "trial": 17, "rt": 1309, "response": "Alpha"}, "16": {"stimulus": 47, "trial": 16, "rt": 871, "response": "Alpha"}, "19": {"stimulus": 37, "trial": 19, "rt": 1955, "response": "Alpha"}, "18": {"stimulus": 12, "trial": 18, "rt": 1347, "response": "Beta"}, "31": {"stimulus": 18, "trial": 31, "rt": 1501, "response": "Beta"}, "30": {"stimulus": 44, "trial": 30, "rt": 1432, "response": "Alpha"}, "37": {"stimulus": 5, "trial": 37, "rt": 1382, "response": "Beta"}, "36": {"stimulus": 1, "trial": 36, "rt": 1308, "response": "Alpha"}, "35": {"stimulus": 43, "trial": 35, "rt": 1899, "response": "Alpha"}, "34": {"stimulus": 8, "trial": 34, "rt": 1391, "response": "Beta"}, "33": {"stimulus": 0, "trial": 33, "rt": 1361, "response": "Beta"}, "55": {"stimulus": 68, "trial": 55, "rt": 1674, "response": "Alpha"}, "74": {"stimulus": 64, "trial": 74, "rt": 775, "response": "Alpha"}, "32": {"stimulus": 36, "trial": 32, "rt": 1369, "response": "Alpha"}, "57": {"stimulus": 2, "trial": 57, "rt": 1111, "response": "Beta"}, "50": {"stimulus": 77, "trial": 50, "rt": 896, "response": "Alpha"}}}