{"generation": {"1": {"stimulus": 78, "trial": 1, "rt": 5858}, "0": {"stimulus": 80, "trial": 0, "rt": 12857}, "3": {"stimulus": 72, "trial": 3, "rt": 3562}, "2": {"stimulus": 76, "trial": 2, "rt": 3298}}, "info": {"participant": 65, "exposed": true, "lab": false, "start": 1488821991372, "counterbalance": 3, "condition": "Row", "browser": {"platform": "MacIntel", "userAgent": "Mozilla/5.0 (Macintosh; Intel Mac OS X 10_8_5) AppleWebKit/537.36 (KHTML, like Gecko) Chrome/49.0.2623.112 Safari/537.36"}}, "experiment": {"Paradigm": "TACL", "Stimuli": "Size-Color Squares", "Experiment": "Generating-Categories"}, "observation": {"11": {"stimulus": 16, "trial": 11, "rt": 1139}, "10": {"stimulus": 14, "trial": 10, "rt": 836}, "1": {"stimulus": 16, "trial": 1, "rt": 1587}, "0": {"stimulus": 12, "trial": 0, "rt": 2859}, "3": {"stimulus": 14, "trial": 3, "rt": 1059}, "2": {"stimulus": 10, "trial": 2, "rt": 1346}, "5": {"stimulus": 16, "trial": 5, "rt": 954}, "4": {"stimulus": 10, "trial": 4, "rt": 1196}, "7": {"stimulus": 12, "trial": 7, "rt": 915}, "6": {"stimulus": 14, "trial": 6, "rt": 947}, "9": {"stimulus": 10, "trial": 9, "rt": 891}, "8": {"stimulus": 12, "trial": 8, "rt": 907}}, "generalization": {"56": {"stimulus": 17, "trial": 56, "rt": 372, "response": "Beta"}, "77": {"stimulus": 57, "trial": 77, "rt": 307, "response": "Beta"}, "54": {"stimulus": 62, "trial": 54, "rt": 426, "response": "Beta"}, "42": {"stimulus": 45, "trial": 42, "rt": 515, "response": "Beta"}, "48": {"stimulus": 54, "trial": 48, "rt": 363, "response": "Beta"}, "43": {"stimulus": 48, "trial": 43, "rt": 434, "response": "Beta"}, "60": {"stimulus": 30, "trial": 60, "rt": 491, "response": "Beta"}, "61": {"stimulus": 37, "trial": 61, "rt": 379, "response": "Beta"}, "62": {"stimulus": 11, "trial": 62, "rt": 1779, "response": "Alpha"}, "63": {"stimulus": 33, "trial": 63, "rt": 843, "response": "Beta"}, "64": {"stimulus": 49, "trial": 64, "rt": 378, "response": "Beta"}, "49": {"stimulus": 71, "trial": 49, "rt": 435, "response": "Beta"}, "66": {"stimulus": 32, "trial": 66, "rt": 683, "response": "Beta"}, "67": {"stimulus": 23, "trial": 67, "rt": 291, "response": "Beta"}, "68": {"stimulus": 74, "trial": 68, "rt": 395, "response": "Beta"}, "69": {"stimulus": 36, "trial": 69, "rt": 395, "response": "Beta"}, "80": {"stimulus": 50, "trial": 80, "rt": 524, "response": "Beta"}, "52": {"stimulus": 64, "trial": 52, "rt": 467, "response": "Beta"}, "53": {"stimulus": 34, "trial": 53, "rt": 499, "response": "Beta"}, "24": {"stimulus": 63, "trial": 24, "rt": 715, "response": "Beta"}, "25": {"stimulus": 79, "trial": 25, "rt": 643, "response": "Beta"}, "26": {"stimulus": 18, "trial": 26, "rt": 802, "response": "Beta"}, "27": {"stimulus": 6, "trial": 27, "rt": 755, "response": "Alpha"}, "20": {"stimulus": 7, "trial": 20, "rt": 835, "response": "Alpha"}, "21": {"stimulus": 80, "trial": 21, "rt": 987, "response": "Beta"}, "22": {"stimulus": 14, "trial": 22, "rt": 2106, "response": "Beta"}, "23": {"stimulus": 47, "trial": 23, "rt": 843, "response": "Beta"}, "46": {"stimulus": 25, "trial": 46, "rt": 700, "response": "Beta"}, "47": {"stimulus": 75, "trial": 47, "rt": 411, "response": "Beta"}, "44": {"stimulus": 70, "trial": 44, "rt": 428, "response": "Beta"}, "45": {"stimulus": 65, "trial": 45, "rt": 410, "response": "Beta"}, "28": {"stimulus": 3, "trial": 28, "rt": 947, "response": "Alpha"}, "29": {"stimulus": 35, "trial": 29, "rt": 563, "response": "Beta"}, "40": {"stimulus": 16, "trial": 40, "rt": 1729, "response": "Alpha"}, "41": {"stimulus": 28, "trial": 41, "rt": 1059, "response": "Beta"}, "1": {"stimulus": 73, "trial": 1, "rt": 881, "response": "Beta"}, "0": {"stimulus": 4, "trial": 0, "rt": 1730, "response": "Alpha"}, "3": {"stimulus": 59, "trial": 3, "rt": 859, "response": "Beta"}, "2": {"stimulus": 0, "trial": 2, "rt": 1748, "response": "Alpha"}, "5": {"stimulus": 69, "trial": 5, "rt": 1499, "response": "Beta"}, "4": {"stimulus": 38, "trial": 4, "rt": 2250, "response": "Beta"}, "7": {"stimulus": 31, "trial": 7, "rt": 1139, "response": "Beta"}, "6": {"stimulus": 56, "trial": 6, "rt": 803, "response": "Beta"}, "9": {"stimulus": 13, "trial": 9, "rt": 1595, "response": "Alpha"}, "8": {"stimulus": 55, "trial": 8, "rt": 755, "response": "Beta"}, "78": {"stimulus": 5, "trial": 78, "rt": 1099, "response": "Alpha"}, "51": {"stimulus": 8, "trial": 51, "rt": 859, "response": "Alpha"}, "39": {"stimulus": 43, "trial": 39, "rt": 635, "response": "Beta"}, "65": {"stimulus": 9, "trial": 65, "rt": 1267, "response": "Alpha"}, "76": {"stimulus": 58, "trial": 76, "rt": 363, "response": "Beta"}, "75": {"stimulus": 76, "trial": 75, "rt": 347, "response": "Beta"}, "38": {"stimulus": 72, "trial": 38, "rt": 403, "response": "Beta"}, "73": {"stimulus": 2, "trial": 73, "rt": 819, "response": "Alpha"}, "72": {"stimulus": 12, "trial": 72, "rt": 1099, "response": "Alpha"}, "71": {"stimulus": 68, "trial": 71, "rt": 377, "response": "Beta"}, "70": {"stimulus": 46, "trial": 70, "rt": 437, "response": "Beta"}, "59": {"stimulus": 78, "trial": 59, "rt": 339, "response": "Beta"}, "79": {"stimulus": 60, "trial": 79, "rt": 715, "response": "Beta"}, "58": {"stimulus": 51, "trial": 58, "rt": 666, "response": "Beta"}, "11": {"stimulus": 15, "trial": 11, "rt": 851, "response": "Alpha"}, "10": {"stimulus": 20, "trial": 10, "rt": 867, "response": "Alpha"}, "13": {"stimulus": 1, "trial": 13, "rt": 987, "response": "Alpha"}, "12": {"stimulus": 27, "trial": 12, "rt": 979, "response": "Alpha"}, "15": {"stimulus": 26, "trial": 15, "rt": 1418, "response": "Beta"}, "14": {"stimulus": 44, "trial": 14, "rt": 906, "response": "Beta"}, "17": {"stimulus": 29, "trial": 17, "rt": 611, "response": "Beta"}, "16": {"stimulus": 10, "trial": 16, "rt": 675, "response": "Beta"}, "19": {"stimulus": 40, "trial": 19, "rt": 523, "response": "Beta"}, "18": {"stimulus": 21, "trial": 18, "rt": 770, "response": "Beta"}, "31": {"stimulus": 39, "trial": 31, "rt": 443, "response": "Beta"}, "30": {"stimulus": 53, "trial": 30, "rt": 731, "response": "Beta"}, "37": {"stimulus": 22, "trial": 37, "rt": 651, "response": "Beta"}, "36": {"stimulus": 67, "trial": 36, "rt": 378, "response": "Beta"}, "35": {"stimulus": 66, "trial": 35, "rt": 385, "response": "Beta"}, "34": {"stimulus": 77, "trial": 34, "rt": 347, "response": "Beta"}, "33": {"stimulus": 52, "trial": 33, "rt": 379, "response": "Beta"}, "55": {"stimulus": 19, "trial": 55, "rt": 418, "response": "Beta"}, "74": {"stimulus": 42, "trial": 74, "rt": 731, "response": "Beta"}, "32": {"stimulus": 61, "trial": 32, "rt": 474, "response": "Beta"}, "57": {"stimulus": 41, "trial": 57, "rt": 418, "response": "Beta"}, "50": {"stimulus": 24, "trial": 50, "rt": 634, "response": "Beta"}}}