{"generation": {"1": {"stimulus": 72, "trial": 1, "rt": 5169}, "0": {"stimulus": 8, "trial": 0, "rt": 12103}, "3": {"stimulus": 15, "trial": 3, "rt": 5147}, "2": {"stimulus": 56, "trial": 2, "rt": 6538}}, "info": {"participant": 68, "exposed": true, "lab": false, "start": 1488822028691, "counterbalance": 0, "condition": "XOR", "browser": {"platform": "Win32", "userAgent": "Mozilla/5.0 (Windows NT 6.1; WOW64; rv:51.0) Gecko/20100101 Firefox/51.0"}}, "experiment": {"Paradigm": "TACL", "Stimuli": "Size-Color Squares", "Experiment": "Generating-Categories"}, "observation": {"11": {"stimulus": 0, "trial": 11, "rt": 899}, "10": {"stimulus": 70, "trial": 10, "rt": 1275}, "1": {"stimulus": 70, "trial": 1, "rt": 2698}, "0": {"stimulus": 80, "trial": 0, "rt": 11358}, "3": {"stimulus": 10, "trial": 3, "rt": 2625}, "2": {"stimulus": 0, "trial": 2, "rt": 7282}, "5": {"stimulus": 80, "trial": 5, "rt": 6843}, "4": {"stimulus": 10, "trial": 4, "rt": 1971}, "7": {"stimulus": 70, "trial": 7, "rt": 1098}, "6": {"stimulus": 0, "trial": 6, "rt": 1945}, "9": {"stimulus": 10, "trial": 9, "rt": 7827}, "8": {"stimulus": 80, "trial": 8, "rt": 859}}, "generalization": {"56": {"stimulus": 22, "trial": 56, "rt": 954, "response": "Beta"}, "77": {"stimulus": 44, "trial": 77, "rt": 986, "response": "Alpha"}, "54": {"stimulus": 8, "trial": 54, "rt": 963, "response": "Beta"}, "42": {"stimulus": 25, "trial": 42, "rt": 964, "response": "Beta"}, "48": {"stimulus": 24, "trial": 48, "rt": 1058, "response": "Beta"}, "43": {"stimulus": 49, "trial": 43, "rt": 1338, "response": "Alpha"}, "60": {"stimulus": 36, "trial": 60, "rt": 1384, "response": "Beta"}, "61": {"stimulus": 46, "trial": 61, "rt": 1460, "response": "Beta"}, "62": {"stimulus": 74, "trial": 62, "rt": 1089, "response": "Alpha"}, "63": {"stimulus": 64, "trial": 63, "rt": 1018, "response": "Beta"}, "64": {"stimulus": 53, "trial": 64, "rt": 1060, "response": "Alpha"}, "49": {"stimulus": 61, "trial": 49, "rt": 1833, "response": "Beta"}, "66": {"stimulus": 52, "trial": 66, "rt": 1054, "response": "Alpha"}, "67": {"stimulus": 3, "trial": 67, "rt": 1861, "response": "Beta"}, "68": {"stimulus": 42, "trial": 68, "rt": 1394, "response": "Beta"}, "69": {"stimulus": 62, "trial": 69, "rt": 914, "response": "Alpha"}, "80": {"stimulus": 4, "trial": 80, "rt": 969, "response": "Beta"}, "52": {"stimulus": 48, "trial": 52, "rt": 1209, "response": "Alpha"}, "53": {"stimulus": 11, "trial": 53, "rt": 1331, "response": "Alpha"}, "24": {"stimulus": 67, "trial": 24, "rt": 939, "response": "Alpha"}, "25": {"stimulus": 16, "trial": 25, "rt": 1085, "response": "Beta"}, "26": {"stimulus": 79, "trial": 26, "rt": 920, "response": "Alpha"}, "27": {"stimulus": 65, "trial": 27, "rt": 1003, "response": "Beta"}, "20": {"stimulus": 43, "trial": 20, "rt": 1098, "response": "Beta"}, "21": {"stimulus": 54, "trial": 21, "rt": 1595, "response": "Beta"}, "22": {"stimulus": 69, "trial": 22, "rt": 963, "response": "Alpha"}, "23": {"stimulus": 70, "trial": 23, "rt": 715, "response": "Alpha"}, "46": {"stimulus": 37, "trial": 46, "rt": 1623, "response": "Beta"}, "47": {"stimulus": 18, "trial": 47, "rt": 1123, "response": "Alpha"}, "44": {"stimulus": 6, "trial": 44, "rt": 1043, "response": "Beta"}, "45": {"stimulus": 57, "trial": 45, "rt": 1533, "response": "Beta"}, "28": {"stimulus": 21, "trial": 28, "rt": 1173, "response": "Beta"}, "29": {"stimulus": 40, "trial": 29, "rt": 1593, "response": "Alpha"}, "40": {"stimulus": 55, "trial": 40, "rt": 1385, "response": "Beta"}, "41": {"stimulus": 19, "trial": 41, "rt": 2296, "response": "Alpha"}, "1": {"stimulus": 5, "trial": 1, "rt": 1259, "response": "Beta"}, "0": {"stimulus": 38, "trial": 0, "rt": 6292, "response": "Beta"}, "3": {"stimulus": 33, "trial": 3, "rt": 883, "response": "Beta"}, "2": {"stimulus": 35, "trial": 2, "rt": 1372, "response": "Beta"}, "5": {"stimulus": 30, "trial": 5, "rt": 1659, "response": "Beta"}, "4": {"stimulus": 75, "trial": 4, "rt": 1755, "response": "Alpha"}, "7": {"stimulus": 13, "trial": 7, "rt": 1479, "response": "Beta"}, "6": {"stimulus": 56, "trial": 6, "rt": 2187, "response": "Beta"}, "9": {"stimulus": 45, "trial": 9, "rt": 1234, "response": "Alpha"}, "8": {"stimulus": 27, "trial": 8, "rt": 3028, "response": "Alpha"}, "78": {"stimulus": 34, "trial": 78, "rt": 1083, "response": "Beta"}, "51": {"stimulus": 7, "trial": 51, "rt": 1099, "response": "Beta"}, "39": {"stimulus": 23, "trial": 39, "rt": 1094, "response": "Beta"}, "65": {"stimulus": 76, "trial": 65, "rt": 784, "response": "Alpha"}, "76": {"stimulus": 15, "trial": 76, "rt": 1091, "response": "Beta"}, "75": {"stimulus": 1, "trial": 75, "rt": 1040, "response": "Alpha"}, "38": {"stimulus": 77, "trial": 38, "rt": 946, "response": "Alpha"}, "73": {"stimulus": 31, "trial": 73, "rt": 1174, "response": "Beta"}, "72": {"stimulus": 0, "trial": 72, "rt": 1375, "response": "Alpha"}, "71": {"stimulus": 29, "trial": 71, "rt": 1003, "response": "Beta"}, "70": {"stimulus": 26, "trial": 70, "rt": 906, "response": "Beta"}, "59": {"stimulus": 72, "trial": 59, "rt": 1323, "response": "Beta"}, "79": {"stimulus": 2, "trial": 79, "rt": 1531, "response": "Alpha"}, "58": {"stimulus": 47, "trial": 58, "rt": 1082, "response": "Alpha"}, "11": {"stimulus": 32, "trial": 11, "rt": 1046, "response": "Alpha"}, "10": {"stimulus": 59, "trial": 10, "rt": 1543, "response": "Alpha"}, "13": {"stimulus": 78, "trial": 13, "rt": 762, "response": "Alpha"}, "12": {"stimulus": 66, "trial": 12, "rt": 994, "response": "Alpha"}, "15": {"stimulus": 50, "trial": 15, "rt": 1223, "response": "Beta"}, "14": {"stimulus": 17, "trial": 14, "rt": 994, "response": "Beta"}, "17": {"stimulus": 73, "trial": 17, "rt": 1361, "response": "Beta"}, "16": {"stimulus": 71, "trial": 16, "rt": 1156, "response": "Alpha"}, "19": {"stimulus": 28, "trial": 19, "rt": 1418, "response": "Alpha"}, "18": {"stimulus": 68, "trial": 18, "rt": 939, "response": "Alpha"}, "31": {"stimulus": 58, "trial": 31, "rt": 877, "response": "Alpha"}, "30": {"stimulus": 51, "trial": 30, "rt": 1388, "response": "Alpha"}, "37": {"stimulus": 41, "trial": 37, "rt": 1075, "response": "Alpha"}, "36": {"stimulus": 80, "trial": 36, "rt": 768, "response": "Alpha"}, "35": {"stimulus": 60, "trial": 35, "rt": 1307, "response": "Alpha"}, "34": {"stimulus": 12, "trial": 34, "rt": 1771, "response": "Beta"}, "33": {"stimulus": 63, "trial": 33, "rt": 4981, "response": "Beta"}, "55": {"stimulus": 10, "trial": 55, "rt": 1819, "response": "Alpha"}, "74": {"stimulus": 20, "trial": 74, "rt": 1179, "response": "Beta"}, "32": {"stimulus": 14, "trial": 32, "rt": 987, "response": "Beta"}, "57": {"stimulus": 39, "trial": 57, "rt": 1021, "response": "Beta"}, "50": {"stimulus": 9, "trial": 50, "rt": 2054, "response": "Alpha"}}}