{"generation": {"1": {"stimulus": 72, "trial": 1, "rt": 8761}, "0": {"stimulus": 80, "trial": 0, "rt": 5825}, "3": {"stimulus": 78, "trial": 3, "rt": 3580}, "2": {"stimulus": 74, "trial": 2, "rt": 3193}}, "info": {"participant": 69, "exposed": true, "lab": false, "start": 1488822025641, "counterbalance": 1, "condition": "Row", "browser": {"platform": "Win32", "userAgent": "Mozilla/5.0 (Windows NT 10.0; WOW64) AppleWebKit/537.36 (KHTML, like Gecko) Chrome/56.0.2924.87 Safari/537.36"}}, "experiment": {"Paradigm": "TACL", "Stimuli": "Size-Color Squares", "Experiment": "Generating-Categories"}, "observation": {"11": {"stimulus": 14, "trial": 11, "rt": 1504}, "10": {"stimulus": 10, "trial": 10, "rt": 843}, "1": {"stimulus": 10, "trial": 1, "rt": 1429}, "0": {"stimulus": 14, "trial": 0, "rt": 3297}, "3": {"stimulus": 12, "trial": 3, "rt": 843}, "2": {"stimulus": 16, "trial": 2, "rt": 1012}, "5": {"stimulus": 12, "trial": 5, "rt": 794}, "4": {"stimulus": 14, "trial": 4, "rt": 831}, "7": {"stimulus": 16, "trial": 7, "rt": 951}, "6": {"stimulus": 10, "trial": 6, "rt": 856}, "9": {"stimulus": 12, "trial": 9, "rt": 854}, "8": {"stimulus": 16, "trial": 8, "rt": 892}}, "generalization": {"56": {"stimulus": 78, "trial": 56, "rt": 651, "response": "Beta"}, "77": {"stimulus": 23, "trial": 77, "rt": 675, "response": "Alpha"}, "54": {"stimulus": 16, "trial": 54, "rt": 1080, "response": "Alpha"}, "42": {"stimulus": 56, "trial": 42, "rt": 555, "response": "Beta"}, "48": {"stimulus": 67, "trial": 48, "rt": 530, "response": "Beta"}, "43": {"stimulus": 57, "trial": 43, "rt": 328, "response": "Beta"}, "60": {"stimulus": 50, "trial": 60, "rt": 543, "response": "Beta"}, "61": {"stimulus": 72, "trial": 61, "rt": 567, "response": "Beta"}, "62": {"stimulus": 42, "trial": 62, "rt": 579, "response": "Alpha"}, "63": {"stimulus": 36, "trial": 63, "rt": 531, "response": "Beta"}, "64": {"stimulus": 47, "trial": 64, "rt": 448, "response": "Beta"}, "49": {"stimulus": 66, "trial": 49, "rt": 338, "response": "Beta"}, "66": {"stimulus": 52, "trial": 66, "rt": 566, "response": "Beta"}, "67": {"stimulus": 17, "trial": 67, "rt": 711, "response": "Alpha"}, "68": {"stimulus": 39, "trial": 68, "rt": 592, "response": "Beta"}, "69": {"stimulus": 3, "trial": 69, "rt": 506, "response": "Alpha"}, "80": {"stimulus": 53, "trial": 80, "rt": 472, "response": "Beta"}, "52": {"stimulus": 69, "trial": 52, "rt": 471, "response": "Beta"}, "53": {"stimulus": 28, "trial": 53, "rt": 555, "response": "Alpha"}, "24": {"stimulus": 54, "trial": 24, "rt": 460, "response": "Beta"}, "25": {"stimulus": 79, "trial": 25, "rt": 375, "response": "Beta"}, "26": {"stimulus": 5, "trial": 26, "rt": 519, "response": "Alpha"}, "27": {"stimulus": 1, "trial": 27, "rt": 364, "response": "Alpha"}, "20": {"stimulus": 30, "trial": 20, "rt": 386, "response": "Alpha"}, "21": {"stimulus": 24, "trial": 21, "rt": 460, "response": "Alpha"}, "22": {"stimulus": 64, "trial": 22, "rt": 364, "response": "Beta"}, "23": {"stimulus": 51, "trial": 23, "rt": 495, "response": "Beta"}, "46": {"stimulus": 41, "trial": 46, "rt": 601, "response": "Alpha"}, "47": {"stimulus": 15, "trial": 47, "rt": 520, "response": "Alpha"}, "44": {"stimulus": 75, "trial": 44, "rt": 376, "response": "Beta"}, "45": {"stimulus": 18, "trial": 45, "rt": 530, "response": "Alpha"}, "28": {"stimulus": 71, "trial": 28, "rt": 829, "response": "Beta"}, "29": {"stimulus": 21, "trial": 29, "rt": 568, "response": "Alpha"}, "40": {"stimulus": 37, "trial": 40, "rt": 808, "response": "Alpha"}, "41": {"stimulus": 25, "trial": 41, "rt": 541, "response": "Alpha"}, "1": {"stimulus": 40, "trial": 1, "rt": 543, "response": "Beta"}, "0": {"stimulus": 61, "trial": 0, "rt": 1804, "response": "Beta"}, "3": {"stimulus": 27, "trial": 3, "rt": 772, "response": "Alpha"}, "2": {"stimulus": 45, "trial": 2, "rt": 579, "response": "Beta"}, "5": {"stimulus": 70, "trial": 5, "rt": 663, "response": "Beta"}, "4": {"stimulus": 73, "trial": 4, "rt": 842, "response": "Beta"}, "7": {"stimulus": 4, "trial": 7, "rt": 411, "response": "Alpha"}, "6": {"stimulus": 8, "trial": 6, "rt": 856, "response": "Alpha"}, "9": {"stimulus": 13, "trial": 9, "rt": 736, "response": "Alpha"}, "8": {"stimulus": 34, "trial": 8, "rt": 663, "response": "Beta"}, "78": {"stimulus": 9, "trial": 78, "rt": 374, "response": "Alpha"}, "51": {"stimulus": 20, "trial": 51, "rt": 436, "response": "Alpha"}, "39": {"stimulus": 33, "trial": 39, "rt": 422, "response": "Alpha"}, "65": {"stimulus": 29, "trial": 65, "rt": 459, "response": "Beta"}, "76": {"stimulus": 65, "trial": 76, "rt": 425, "response": "Beta"}, "75": {"stimulus": 58, "trial": 75, "rt": 553, "response": "Beta"}, "38": {"stimulus": 10, "trial": 38, "rt": 505, "response": "Alpha"}, "73": {"stimulus": 22, "trial": 73, "rt": 337, "response": "Beta"}, "72": {"stimulus": 77, "trial": 72, "rt": 339, "response": "Beta"}, "71": {"stimulus": 68, "trial": 71, "rt": 423, "response": "Beta"}, "70": {"stimulus": 11, "trial": 70, "rt": 352, "response": "Alpha"}, "59": {"stimulus": 32, "trial": 59, "rt": 400, "response": "Beta"}, "79": {"stimulus": 44, "trial": 79, "rt": 577, "response": "Beta"}, "58": {"stimulus": 59, "trial": 58, "rt": 493, "response": "Beta"}, "11": {"stimulus": 62, "trial": 11, "rt": 529, "response": "Beta"}, "10": {"stimulus": 63, "trial": 10, "rt": 603, "response": "Beta"}, "13": {"stimulus": 35, "trial": 13, "rt": 459, "response": "Alpha"}, "12": {"stimulus": 6, "trial": 12, "rt": 413, "response": "Alpha"}, "15": {"stimulus": 46, "trial": 15, "rt": 497, "response": "Beta"}, "14": {"stimulus": 38, "trial": 14, "rt": 806, "response": "Beta"}, "17": {"stimulus": 49, "trial": 17, "rt": 375, "response": "Alpha"}, "16": {"stimulus": 26, "trial": 16, "rt": 494, "response": "Alpha"}, "19": {"stimulus": 14, "trial": 19, "rt": 423, "response": "Beta"}, "18": {"stimulus": 43, "trial": 18, "rt": 506, "response": "Beta"}, "31": {"stimulus": 80, "trial": 31, "rt": 506, "response": "Beta"}, "30": {"stimulus": 31, "trial": 30, "rt": 544, "response": "Beta"}, "37": {"stimulus": 76, "trial": 37, "rt": 592, "response": "Beta"}, "36": {"stimulus": 12, "trial": 36, "rt": 591, "response": "Alpha"}, "35": {"stimulus": 60, "trial": 35, "rt": 363, "response": "Beta"}, "34": {"stimulus": 55, "trial": 34, "rt": 386, "response": "Beta"}, "33": {"stimulus": 48, "trial": 33, "rt": 808, "response": "Beta"}, "55": {"stimulus": 7, "trial": 55, "rt": 448, "response": "Alpha"}, "74": {"stimulus": 2, "trial": 74, "rt": 353, "response": "Alpha"}, "32": {"stimulus": 74, "trial": 32, "rt": 447, "response": "Alpha"}, "57": {"stimulus": 0, "trial": 57, "rt": 603, "response": "Alpha"}, "50": {"stimulus": 19, "trial": 50, "rt": 303, "response": "Beta"}}}03, "response": "Beta"}}}