{"generation": {"1": {"stimulus": 8, "trial": 1, "rt": 6971}, "0": {"stimulus": 64, "trial": 0, "rt": 16152}, "3": {"stimulus": 5, "trial": 3, "rt": 4429}, "2": {"stimulus": 9, "trial": 2, "rt": 10810}}, "info": {"finish": 1488822259952, "participant": 70, "exposed": true, "lab": false, "start": 1488822029857, "counterbalance": 6, "condition": "XOR", "browser": {"platform": "Win32", "userAgent": "Mozilla/5.0 (Windows NT 6.0; rv:51.0) Gecko/20100101 Firefox/51.0"}}, "experiment": {"Paradigm": "TACL", "Stimuli": "Size-Color Squares", "Experiment": "Generating-Categories"}, "observation": {"11": {"stimulus": 70, "trial": 11, "rt": 904}, "10": {"stimulus": 80, "trial": 10, "rt": 681}, "1": {"stimulus": 0, "trial": 1, "rt": 1777}, "0": {"stimulus": 70, "trial": 0, "rt": 3695}, "3": {"stimulus": 80, "trial": 3, "rt": 1755}, "2": {"stimulus": 10, "trial": 2, "rt": 1332}, "5": {"stimulus": 70, "trial": 5, "rt": 1127}, "4": {"stimulus": 0, "trial": 4, "rt": 1389}, "7": {"stimulus": 80, "trial": 7, "rt": 1288}, "6": {"stimulus": 10, "trial": 6, "rt": 1305}, "9": {"stimulus": 10, "trial": 9, "rt": 824}, "8": {"stimulus": 0, "trial": 8, "rt": 813}}, "generalization": {"56": {"stimulus": 7, "trial": 56, "rt": 939, "response": "Beta"}, "77": {"stimulus": 66, "trial": 77, "rt": 1708, "response": "Alpha"}, "54": {"stimulus": 32, "trial": 54, "rt": 1158, "response": "Beta"}, "42": {"stimulus": 63, "trial": 42, "rt": 1254, "response": "Alpha"}, "48": {"stimulus": 25, "trial": 48, "rt": 595, "response": "Beta"}, "43": {"stimulus": 55, "trial": 43, "rt": 876, "response": "Alpha"}, "60": {"stimulus": 22, "trial": 60, "rt": 832, "response": "Beta"}, "61": {"stimulus": 72, "trial": 61, "rt": 2218, "response": "Alpha"}, "62": {"stimulus": 65, "trial": 62, "rt": 1489, "response": "Alpha"}, "63": {"stimulus": 46, "trial": 63, "rt": 644, "response": "Alpha"}, "64": {"stimulus": 59, "trial": 64, "rt": 554, "response": "Alpha"}, "49": {"stimulus": 34, "trial": 49, "rt": 480, "response": "Beta"}, "66": {"stimulus": 3, "trial": 66, "rt": 910, "response": "Beta"}, "67": {"stimulus": 64, "trial": 67, "rt": 515, "response": "Beta"}, "68": {"stimulus": 44, "trial": 68, "rt": 1254, "response": "Alpha"}, "69": {"stimulus": 39, "trial": 69, "rt": 1122, "response": "Alpha"}, "80": {"stimulus": 79, "trial": 80, "rt": 1253, "response": "Alpha"}, "52": {"stimulus": 26, "trial": 52, "rt": 1557, "response": "Beta"}, "53": {"stimulus": 56, "trial": 53, "rt": 1577, "response": "Alpha"}, "24": {"stimulus": 70, "trial": 24, "rt": 2771, "response": "Alpha"}, "25": {"stimulus": 53, "trial": 25, "rt": 991, "response": "Beta"}, "26": {"stimulus": 48, "trial": 26, "rt": 797, "response": "Beta"}, "27": {"stimulus": 69, "trial": 27, "rt": 1031, "response": "Beta"}, "20": {"stimulus": 50, "trial": 20, "rt": 1597, "response": "Alpha"}, "21": {"stimulus": 49, "trial": 21, "rt": 1052, "response": "Beta"}, "22": {"stimulus": 74, "trial": 22, "rt": 882, "response": "Beta"}, "23": {"stimulus": 47, "trial": 23, "rt": 1239, "response": "Alpha"}, "46": {"stimulus": 78, "trial": 46, "rt": 1456, "response": "Alpha"}, "47": {"stimulus": 8, "trial": 47, "rt": 1051, "response": "Beta"}, "44": {"stimulus": 12, "trial": 44, "rt": 863, "response": "Beta"}, "45": {"stimulus": 20, "trial": 45, "rt": 682, "response": "Beta"}, "28": {"stimulus": 68, "trial": 28, "rt": 807, "response": "Beta"}, "29": {"stimulus": 13, "trial": 29, "rt": 865, "response": "Beta"}, "40": {"stimulus": 71, "trial": 40, "rt": 1368, "response": "Alpha"}, "41": {"stimulus": 52, "trial": 41, "rt": 2256, "response": "Beta"}, "1": {"stimulus": 40, "trial": 1, "rt": 2406, "response": "Alpha"}, "0": {"stimulus": 23, "trial": 0, "rt": 2224, "response": "Alpha"}, "3": {"stimulus": 24, "trial": 3, "rt": 1739, "response": "Beta"}, "2": {"stimulus": 67, "trial": 2, "rt": 2073, "response": "Beta"}, "5": {"stimulus": 73, "trial": 5, "rt": 1421, "response": "Beta"}, "4": {"stimulus": 18, "trial": 4, "rt": 1372, "response": "Alpha"}, "7": {"stimulus": 27, "trial": 7, "rt": 1567, "response": "Alpha"}, "6": {"stimulus": 5, "trial": 6, "rt": 1359, "response": "Beta"}, "9": {"stimulus": 37, "trial": 9, "rt": 1403, "response": "Alpha"}, "8": {"stimulus": 80, "trial": 8, "rt": 1027, "response": "Alpha"}, "78": {"stimulus": 28, "trial": 78, "rt": 797, "response": "Alpha"}, "51": {"stimulus": 38, "trial": 51, "rt": 1488, "response": "Alpha"}, "39": {"stimulus": 30, "trial": 39, "rt": 1196, "response": "Beta"}, "65": {"stimulus": 45, "trial": 65, "rt": 812, "response": "Alpha"}, "76": {"stimulus": 60, "trial": 76, "rt": 1318, "response": "Alpha"}, "75": {"stimulus": 11, "trial": 75, "rt": 602, "response": "Beta"}, "38": {"stimulus": 6, "trial": 38, "rt": 724, "response": "Beta"}, "73": {"stimulus": 36, "trial": 73, "rt": 872, "response": "Alpha"}, "72": {"stimulus": 58, "trial": 72, "rt": 1251, "response": "Beta"}, "71": {"stimulus": 42, "trial": 71, "rt": 1050, "response": "Beta"}, "70": {"stimulus": 15, "trial": 70, "rt": 1293, "response": "Beta"}, "59": {"stimulus": 21, "trial": 59, "rt": 946, "response": "Beta"}, "79": {"stimulus": 35, "trial": 79, "rt": 640, "response": "Beta"}, "58": {"stimulus": 51, "trial": 58, "rt": 816, "response": "Alpha"}, "11": {"stimulus": 33, "trial": 11, "rt": 1287, "response": "Alpha"}, "10": {"stimulus": 77, "trial": 10, "rt": 1835, "response": "Beta"}, "13": {"stimulus": 2, "trial": 13, "rt": 1166, "response": "Beta"}, "12": {"stimulus": 62, "trial": 12, "rt": 1398, "response": "Beta"}, "15": {"stimulus": 76, "trial": 15, "rt": 1891, "response": "Beta"}, "14": {"stimulus": 1, "trial": 14, "rt": 497, "response": "Beta"}, "17": {"stimulus": 75, "trial": 17, "rt": 1798, "response": "Alpha"}, "16": {"stimulus": 43, "trial": 16, "rt": 1866, "response": "Alpha"}, "19": {"stimulus": 16, "trial": 19, "rt": 1092, "response": "Beta"}, "18": {"stimulus": 54, "trial": 18, "rt": 1176, "response": "Alpha"}, "31": {"stimulus": 57, "trial": 31, "rt": 1268, "response": "Alpha"}, "30": {"stimulus": 61, "trial": 30, "rt": 1084, "response": "Alpha"}, "37": {"stimulus": 14, "trial": 37, "rt": 935, "response": "Beta"}, "36": {"stimulus": 17, "trial": 36, "rt": 720, "response": "Beta"}, "35": {"stimulus": 4, "trial": 35, "rt": 1009, "response": "Beta"}, "34": {"stimulus": 0, "trial": 34, "rt": 527, "response": "Beta"}, "33": {"stimulus": 9, "trial": 33, "rt": 501, "response": "Beta"}, "55": {"stimulus": 31, "trial": 55, "rt": 826, "response": "Beta"}, "74": {"stimulus": 41, "trial": 74, "rt": 1322, "response": "Beta"}, "32": {"stimulus": 10, "trial": 32, "rt": 1130, "response": "Beta"}, "57": {"stimulus": 29, "trial": 57, "rt": 745, "response": "Beta"}, "50": {"stimulus": 19, "trial": 50, "rt": 1064, "response": "Beta"}}}