{"generation": {"1": {"stimulus": 21, "trial": 1, "rt": 15640}, "0": {"stimulus": 20, "trial": 0, "rt": 11127}, "3": {"stimulus": 40, "trial": 3, "rt": 5270}, "2": {"stimulus": 41, "trial": 2, "rt": 9486}}, "info": {"participant": 71, "exposed": true, "lab": false, "start": 1488822035289, "counterbalance": 7, "condition": "Cluster", "browser": {"platform": "Win32", "userAgent": "Mozilla/5.0 (Windows NT 6.1; Win64; x64) AppleWebKit/537.36 (KHTML, like Gecko) Chrome/56.0.2924.87 Safari/537.36"}}, "experiment": {"Paradigm": "TACL", "Stimuli": "Size-Color Squares", "Experiment": "Generating-Categories"}, "observation": {"11": {"stimulus": 34, "trial": 11, "rt": 1324}, "10": {"stimulus": 14, "trial": 10, "rt": 3326}, "1": {"stimulus": 32, "trial": 1, "rt": 1939}, "0": {"stimulus": 34, "trial": 0, "rt": 3355}, "3": {"stimulus": 16, "trial": 3, "rt": 3615}, "2": {"stimulus": 14, "trial": 2, "rt": 1738}, "5": {"stimulus": 16, "trial": 5, "rt": 2701}, "4": {"stimulus": 32, "trial": 4, "rt": 2361}, "7": {"stimulus": 14, "trial": 7, "rt": 123461}, "6": {"stimulus": 34, "trial": 6, "rt": 2805}, "9": {"stimulus": 32, "trial": 9, "rt": 2519}, "8": {"stimulus": 16, "trial": 8, "rt": 1721}}, "generalization": {"56": {"stimulus": 80, "trial": 56, "rt": 1033, "response": "Alpha"}, "77": {"stimulus": 19, "trial": 77, "rt": 1356, "response": "Beta"}, "54": {"stimulus": 11, "trial": 54, "rt": 2684, "response": "Alpha"}, "42": {"stimulus": 22, "trial": 42, "rt": 1083, "response": "Beta"}, "48": {"stimulus": 40, "trial": 48, "rt": 1106, "response": "Beta"}, "43": {"stimulus": 25, "trial": 43, "rt": 1019, "response": "Alpha"}, "60": {"stimulus": 29, "trial": 60, "rt": 813, "response": "Alpha"}, "61": {"stimulus": 62, "trial": 61, "rt": 852, "response": "Beta"}, "62": {"stimulus": 30, "trial": 62, "rt": 886, "response": "Alpha"}, "63": {"stimulus": 8, "trial": 63, "rt": 1211, "response": "Beta"}, "64": {"stimulus": 57, "trial": 64, "rt": 2658, "response": "Alpha"}, "49": {"stimulus": 68, "trial": 49, "rt": 1446, "response": "Alpha"}, "66": {"stimulus": 10, "trial": 66, "rt": 1224, "response": "Alpha"}, "67": {"stimulus": 58, "trial": 67, "rt": 1403, "response": "Alpha"}, "68": {"stimulus": 16, "trial": 68, "rt": 1557, "response": "Beta"}, "69": {"stimulus": 36, "trial": 69, "rt": 1183, "response": "Alpha"}, "80": {"stimulus": 39, "trial": 80, "rt": 1354, "response": "Alpha"}, "52": {"stimulus": 53, "trial": 52, "rt": 1025, "response": "Alpha"}, "53": {"stimulus": 78, "trial": 53, "rt": 1305, "response": "Beta"}, "24": {"stimulus": 1, "trial": 24, "rt": 1621, "response": "Alpha"}, "25": {"stimulus": 2, "trial": 25, "rt": 1088, "response": "Beta"}, "26": {"stimulus": 73, "trial": 26, "rt": 1111, "response": "Alpha"}, "27": {"stimulus": 28, "trial": 27, "rt": 990, "response": "Beta"}, "20": {"stimulus": 38, "trial": 20, "rt": 1157, "response": "Alpha"}, "21": {"stimulus": 47, "trial": 21, "rt": 1945, "response": "Beta"}, "22": {"stimulus": 41, "trial": 22, "rt": 988, "response": "Alpha"}, "23": {"stimulus": 75, "trial": 23, "rt": 1266, "response": "Beta"}, "46": {"stimulus": 69, "trial": 46, "rt": 1306, "response": "Beta"}, "47": {"stimulus": 50, "trial": 47, "rt": 945, "response": "Alpha"}, "44": {"stimulus": 37, "trial": 44, "rt": 972, "response": "Beta"}, "45": {"stimulus": 76, "trial": 45, "rt": 1094, "response": "Alpha"}, "28": {"stimulus": 42, "trial": 28, "rt": 1242, "response": "Alpha"}, "29": {"stimulus": 24, "trial": 29, "rt": 1604, "response": "Beta"}, "40": {"stimulus": 54, "trial": 40, "rt": 1178, "response": "Beta"}, "41": {"stimulus": 43, "trial": 41, "rt": 1185, "response": "Alpha"}, "1": {"stimulus": 4, "trial": 1, "rt": 1305, "response": "Alpha"}, "0": {"stimulus": 23, "trial": 0, "rt": 1954, "response": "Beta"}, "3": {"stimulus": 32, "trial": 3, "rt": 1258, "response": "Alpha"}, "2": {"stimulus": 45, "trial": 2, "rt": 1955, "response": "Beta"}, "5": {"stimulus": 49, "trial": 5, "rt": 1632, "response": "Beta"}, "4": {"stimulus": 66, "trial": 4, "rt": 1449, "response": "Alpha"}, "7": {"stimulus": 77, "trial": 7, "rt": 808, "response": "Beta"}, "6": {"stimulus": 7, "trial": 6, "rt": 1354, "response": "Alpha"}, "9": {"stimulus": 61, "trial": 9, "rt": 1249, "response": "Beta"}, "8": {"stimulus": 15, "trial": 8, "rt": 1902, "response": "Alpha"}, "78": {"stimulus": 64, "trial": 78, "rt": 934, "response": "Alpha"}, "51": {"stimulus": 26, "trial": 51, "rt": 1403, "response": "Beta"}, "39": {"stimulus": 48, "trial": 39, "rt": 1308, "response": "Alpha"}, "65": {"stimulus": 20, "trial": 65, "rt": 1869, "response": "Alpha"}, "76": {"stimulus": 18, "trial": 76, "rt": 1867, "response": "Alpha"}, "75": {"stimulus": 52, "trial": 75, "rt": 865, "response": "Beta"}, "38": {"stimulus": 17, "trial": 38, "rt": 1185, "response": "Beta"}, "73": {"stimulus": 70, "trial": 73, "rt": 1038, "response": "Beta"}, "72": {"stimulus": 51, "trial": 72, "rt": 992, "response": "Alpha"}, "71": {"stimulus": 72, "trial": 71, "rt": 1105, "response": "Beta"}, "70": {"stimulus": 63, "trial": 70, "rt": 1372, "response": "Alpha"}, "59": {"stimulus": 13, "trial": 59, "rt": 870, "response": "Beta"}, "79": {"stimulus": 46, "trial": 79, "rt": 932, "response": "Beta"}, "58": {"stimulus": 35, "trial": 58, "rt": 871, "response": "Alpha"}, "11": {"stimulus": 3, "trial": 11, "rt": 1377, "response": "Beta"}, "10": {"stimulus": 71, "trial": 10, "rt": 3444, "response": "Alpha"}, "13": {"stimulus": 6, "trial": 13, "rt": 977, "response": "Beta"}, "12": {"stimulus": 59, "trial": 12, "rt": 1205, "response": "Alpha"}, "15": {"stimulus": 56, "trial": 15, "rt": 1806, "response": "Alpha"}, "14": {"stimulus": 67, "trial": 14, "rt": 745, "response": "Beta"}, "17": {"stimulus": 21, "trial": 17, "rt": 2720, "response": "Alpha"}, "16": {"stimulus": 27, "trial": 16, "rt": 965, "response": "Beta"}, "19": {"stimulus": 44, "trial": 19, "rt": 2096, "response": "Beta"}, "18": {"stimulus": 12, "trial": 18, "rt": 1740, "response": "Beta"}, "31": {"stimulus": 65, "trial": 31, "rt": 1933, "response": "Beta"}, "30": {"stimulus": 55, "trial": 30, "rt": 1257, "response": "Alpha"}, "37": {"stimulus": 33, "trial": 37, "rt": 1837, "response": "Alpha"}, "36": {"stimulus": 60, "trial": 36, "rt": 973, "response": "Beta"}, "35": {"stimulus": 74, "trial": 35, "rt": 1205, "response": "Alpha"}, "34": {"stimulus": 31, "trial": 34, "rt": 1227, "response": "Beta"}, "33": {"stimulus": 0, "trial": 33, "rt": 1306, "response": "Alpha"}, "55": {"stimulus": 14, "trial": 55, "rt": 852, "response": "Beta"}, "74": {"stimulus": 5, "trial": 74, "rt": 1020, "response": "Alpha"}, "32": {"stimulus": 34, "trial": 32, "rt": 1324, "response": "Beta"}, "57": {"stimulus": 79, "trial": 57, "rt": 728, "response": "Beta"}, "50": {"stimulus": 9, "trial": 50, "rt": 1241, "response": "Beta"}}}41, "response": "Beta"}}}