{"generation": {"1": {"stimulus": 80, "trial": 1, "rt": 6126}, "0": {"stimulus": 72, "trial": 0, "rt": 15677}, "3": {"stimulus": 78, "trial": 3, "rt": 5411}, "2": {"stimulus": 75, "trial": 2, "rt": 6276}}, "info": {"finish": 1488822249867, "participant": 72, "exposed": true, "lab": false, "start": 1488822040895, "counterbalance": 0, "condition": "Row", "browser": {"platform": "Win32", "userAgent": "Mozilla/5.0 (Windows NT 6.3; Win64; x64) AppleWebKit/537.36 (KHTML, like Gecko) Chrome/56.0.2924.87 Safari/537.36"}}, "experiment": {"Paradigm": "TACL", "Stimuli": "Size-Color Squares", "Experiment": "Generating-Categories"}, "observation": {"11": {"stimulus": 14, "trial": 11, "rt": 903}, "10": {"stimulus": 12, "trial": 10, "rt": 1045}, "1": {"stimulus": 14, "trial": 1, "rt": 1463}, "0": {"stimulus": 10, "trial": 0, "rt": 2024}, "3": {"stimulus": 12, "trial": 3, "rt": 1116}, "2": {"stimulus": 16, "trial": 2, "rt": 1278}, "5": {"stimulus": 12, "trial": 5, "rt": 1507}, "4": {"stimulus": 10, "trial": 4, "rt": 1364}, "7": {"stimulus": 16, "trial": 7, "rt": 1125}, "6": {"stimulus": 14, "trial": 6, "rt": 1303}, "9": {"stimulus": 10, "trial": 9, "rt": 914}, "8": {"stimulus": 16, "trial": 8, "rt": 1064}}, "generalization": {"56": {"stimulus": 12, "trial": 56, "rt": 1665, "response": "Beta"}, "77": {"stimulus": 32, "trial": 77, "rt": 782, "response": "Alpha"}, "54": {"stimulus": 22, "trial": 54, "rt": 806, "response": "Alpha"}, "42": {"stimulus": 19, "trial": 42, "rt": 590, "response": "Alpha"}, "48": {"stimulus": 29, "trial": 48, "rt": 800, "response": "Alpha"}, "43": {"stimulus": 68, "trial": 43, "rt": 1156, "response": "Beta"}, "60": {"stimulus": 6, "trial": 60, "rt": 766, "response": "Alpha"}, "61": {"stimulus": 26, "trial": 61, "rt": 972, "response": "Alpha"}, "62": {"stimulus": 2, "trial": 62, "rt": 2083, "response": "Alpha"}, "63": {"stimulus": 60, "trial": 63, "rt": 1553, "response": "Alpha"}, "64": {"stimulus": 38, "trial": 64, "rt": 654, "response": "Alpha"}, "49": {"stimulus": 9, "trial": 49, "rt": 819, "response": "Alpha"}, "66": {"stimulus": 8, "trial": 66, "rt": 987, "response": "Alpha"}, "67": {"stimulus": 34, "trial": 67, "rt": 1080, "response": "Alpha"}, "68": {"stimulus": 63, "trial": 68, "rt": 1345, "response": "Beta"}, "69": {"stimulus": 47, "trial": 69, "rt": 1863, "response": "Alpha"}, "80": {"stimulus": 17, "trial": 80, "rt": 1187, "response": "Alpha"}, "52": {"stimulus": 50, "trial": 52, "rt": 1225, "response": "Alpha"}, "53": {"stimulus": 21, "trial": 53, "rt": 2106, "response": "Alpha"}, "24": {"stimulus": 54, "trial": 24, "rt": 1205, "response": "Alpha"}, "25": {"stimulus": 45, "trial": 25, "rt": 1039, "response": "Alpha"}, "26": {"stimulus": 14, "trial": 26, "rt": 1078, "response": "Alpha"}, "27": {"stimulus": 41, "trial": 27, "rt": 856, "response": "Alpha"}, "20": {"stimulus": 25, "trial": 20, "rt": 715, "response": "Alpha"}, "21": {"stimulus": 65, "trial": 21, "rt": 972, "response": "Beta"}, "22": {"stimulus": 11, "trial": 22, "rt": 1186, "response": "Alpha"}, "23": {"stimulus": 70, "trial": 23, "rt": 1408, "response": "Beta"}, "46": {"stimulus": 57, "trial": 46, "rt": 875, "response": "Alpha"}, "47": {"stimulus": 71, "trial": 47, "rt": 773, "response": "Alpha"}, "44": {"stimulus": 59, "trial": 44, "rt": 2134, "response": "Alpha"}, "45": {"stimulus": 55, "trial": 45, "rt": 706, "response": "Alpha"}, "28": {"stimulus": 13, "trial": 28, "rt": 840, "response": "Alpha"}, "29": {"stimulus": 15, "trial": 29, "rt": 837, "response": "Alpha"}, "40": {"stimulus": 42, "trial": 40, "rt": 759, "response": "Alpha"}, "41": {"stimulus": 4, "trial": 41, "rt": 659, "response": "Alpha"}, "1": {"stimulus": 27, "trial": 1, "rt": 2072, "response": "Alpha"}, "0": {"stimulus": 28, "trial": 0, "rt": 2327, "response": "Alpha"}, "3": {"stimulus": 18, "trial": 3, "rt": 858, "response": "Alpha"}, "2": {"stimulus": 24, "trial": 2, "rt": 1140, "response": "Alpha"}, "5": {"stimulus": 72, "trial": 5, "rt": 942, "response": "Beta"}, "4": {"stimulus": 49, "trial": 4, "rt": 2532, "response": "Beta"}, "7": {"stimulus": 40, "trial": 7, "rt": 972, "response": "Alpha"}, "6": {"stimulus": 36, "trial": 6, "rt": 1320, "response": "Alpha"}, "9": {"stimulus": 80, "trial": 9, "rt": 833, "response": "Beta"}, "8": {"stimulus": 79, "trial": 8, "rt": 888, "response": "Beta"}, "78": {"stimulus": 74, "trial": 78, "rt": 1194, "response": "Beta"}, "51": {"stimulus": 67, "trial": 51, "rt": 791, "response": "Alpha"}, "39": {"stimulus": 7, "trial": 39, "rt": 655, "response": "Alpha"}, "65": {"stimulus": 61, "trial": 65, "rt": 1313, "response": "Alpha"}, "76": {"stimulus": 51, "trial": 76, "rt": 913, "response": "Alpha"}, "75": {"stimulus": 48, "trial": 75, "rt": 861, "response": "Alpha"}, "38": {"stimulus": 20, "trial": 38, "rt": 600, "response": "Alpha"}, "73": {"stimulus": 66, "trial": 73, "rt": 1333, "response": "Beta"}, "72": {"stimulus": 30, "trial": 72, "rt": 1360, "response": "Alpha"}, "71": {"stimulus": 3, "trial": 71, "rt": 2826, "response": "Alpha"}, "70": {"stimulus": 73, "trial": 70, "rt": 1686, "response": "Beta"}, "59": {"stimulus": 46, "trial": 59, "rt": 1212, "response": "Alpha"}, "79": {"stimulus": 76, "trial": 79, "rt": 2591, "response": "Beta"}, "58": {"stimulus": 5, "trial": 58, "rt": 700, "response": "Alpha"}, "11": {"stimulus": 33, "trial": 11, "rt": 749, "response": "Alpha"}, "10": {"stimulus": 43, "trial": 10, "rt": 1004, "response": "Alpha"}, "13": {"stimulus": 37, "trial": 13, "rt": 870, "response": "Alpha"}, "12": {"stimulus": 0, "trial": 12, "rt": 719, "response": "Alpha"}, "15": {"stimulus": 58, "trial": 15, "rt": 1062, "response": "Alpha"}, "14": {"stimulus": 62, "trial": 14, "rt": 879, "response": "Beta"}, "17": {"stimulus": 35, "trial": 17, "rt": 863, "response": "Alpha"}, "16": {"stimulus": 78, "trial": 16, "rt": 928, "response": "Beta"}, "19": {"stimulus": 44, "trial": 19, "rt": 858, "response": "Alpha"}, "18": {"stimulus": 23, "trial": 18, "rt": 658, "response": "Alpha"}, "31": {"stimulus": 16, "trial": 31, "rt": 704, "response": "Alpha"}, "30": {"stimulus": 64, "trial": 30, "rt": 1147, "response": "Alpha"}, "37": {"stimulus": 31, "trial": 37, "rt": 754, "response": "Alpha"}, "36": {"stimulus": 53, "trial": 36, "rt": 1480, "response": "Alpha"}, "35": {"stimulus": 75, "trial": 35, "rt": 1112, "response": "Beta"}, "34": {"stimulus": 10, "trial": 34, "rt": 626, "response": "Alpha"}, "33": {"stimulus": 1, "trial": 33, "rt": 657, "response": "Alpha"}, "55": {"stimulus": 56, "trial": 55, "rt": 1203, "response": "Alpha"}, "74": {"stimulus": 39, "trial": 74, "rt": 1527, "response": "Alpha"}, "32": {"stimulus": 52, "trial": 32, "rt": 907, "response": "Alpha"}, "57": {"stimulus": 77, "trial": 57, "rt": 1019, "response": "Beta"}, "50": {"stimulus": 69, "trial": 50, "rt": 1219, "response": "Beta"}}}