{"generation": {"1": {"stimulus": 68, "trial": 1, "rt": 5761}, "0": {"stimulus": 78, "trial": 0, "rt": 8136}, "3": {"stimulus": 65, "trial": 3, "rt": 4323}, "2": {"stimulus": 75, "trial": 2, "rt": 4601}}, "info": {"finish": 1488822260138, "participant": 74, "exposed": true, "lab": false, "start": 1488822044153, "counterbalance": 2, "condition": "Cluster", "browser": {"platform": "Linux x86_64", "userAgent": "Mozilla/5.0 (X11; Linux x86_64) AppleWebKit/537.36 (KHTML, like Gecko) Chrome/56.0.2924.76 Safari/537.36"}}, "experiment": {"Paradigm": "TACL", "Stimuli": "Size-Color Squares", "Experiment": "Generating-Categories"}, "observation": {"11": {"stimulus": 34, "trial": 11, "rt": 1107}, "10": {"stimulus": 32, "trial": 10, "rt": 1163}, "1": {"stimulus": 32, "trial": 1, "rt": 1194}, "0": {"stimulus": 34, "trial": 0, "rt": 3878}, "3": {"stimulus": 16, "trial": 3, "rt": 1019}, "2": {"stimulus": 14, "trial": 2, "rt": 1035}, "5": {"stimulus": 34, "trial": 5, "rt": 923}, "4": {"stimulus": 32, "trial": 4, "rt": 963}, "7": {"stimulus": 14, "trial": 7, "rt": 1027}, "6": {"stimulus": 16, "trial": 6, "rt": 1138}, "9": {"stimulus": 14, "trial": 9, "rt": 1116}, "8": {"stimulus": 16, "trial": 8, "rt": 1027}}, "generalization": {"56": {"stimulus": 68, "trial": 56, "rt": 595, "response": "Beta"}, "77": {"stimulus": 2, "trial": 77, "rt": 811, "response": "Alpha"}, "54": {"stimulus": 66, "trial": 54, "rt": 859, "response": "Beta"}, "42": {"stimulus": 16, "trial": 42, "rt": 539, "response": "Alpha"}, "48": {"stimulus": 63, "trial": 48, "rt": 691, "response": "Beta"}, "43": {"stimulus": 54, "trial": 43, "rt": 827, "response": "Beta"}, "60": {"stimulus": 56, "trial": 60, "rt": 747, "response": "Beta"}, "61": {"stimulus": 57, "trial": 61, "rt": 587, "response": "Beta"}, "62": {"stimulus": 34, "trial": 62, "rt": 1018, "response": "Alpha"}, "63": {"stimulus": 55, "trial": 63, "rt": 1683, "response": "Beta"}, "64": {"stimulus": 78, "trial": 64, "rt": 964, "response": "Beta"}, "49": {"stimulus": 75, "trial": 49, "rt": 490, "response": "Beta"}, "66": {"stimulus": 38, "trial": 66, "rt": 659, "response": "Alpha"}, "67": {"stimulus": 10, "trial": 67, "rt": 506, "response": "Alpha"}, "68": {"stimulus": 11, "trial": 68, "rt": 547, "response": "Alpha"}, "69": {"stimulus": 49, "trial": 69, "rt": 812, "response": "Alpha"}, "80": {"stimulus": 70, "trial": 80, "rt": 780, "response": "Beta"}, "52": {"stimulus": 77, "trial": 52, "rt": 779, "response": "Beta"}, "53": {"stimulus": 18, "trial": 53, "rt": 699, "response": "Alpha"}, "24": {"stimulus": 32, "trial": 24, "rt": 907, "response": "Alpha"}, "25": {"stimulus": 48, "trial": 25, "rt": 1378, "response": "Alpha"}, "26": {"stimulus": 64, "trial": 26, "rt": 778, "response": "Beta"}, "27": {"stimulus": 59, "trial": 27, "rt": 755, "response": "Beta"}, "20": {"stimulus": 25, "trial": 20, "rt": 810, "response": "Alpha"}, "21": {"stimulus": 50, "trial": 21, "rt": 986, "response": "Beta"}, "22": {"stimulus": 58, "trial": 22, "rt": 1287, "response": "Alpha"}, "23": {"stimulus": 13, "trial": 23, "rt": 810, "response": "Alpha"}, "46": {"stimulus": 42, "trial": 46, "rt": 954, "response": "Alpha"}, "47": {"stimulus": 52, "trial": 47, "rt": 571, "response": "Alpha"}, "44": {"stimulus": 37, "trial": 44, "rt": 1283, "response": "Alpha"}, "45": {"stimulus": 7, "trial": 45, "rt": 644, "response": "Alpha"}, "28": {"stimulus": 76, "trial": 28, "rt": 787, "response": "Beta"}, "29": {"stimulus": 28, "trial": 29, "rt": 851, "response": "Alpha"}, "40": {"stimulus": 15, "trial": 40, "rt": 800, "response": "Alpha"}, "41": {"stimulus": 33, "trial": 41, "rt": 635, "response": "Alpha"}, "1": {"stimulus": 17, "trial": 1, "rt": 650, "response": "Alpha"}, "0": {"stimulus": 60, "trial": 0, "rt": 2039, "response": "Beta"}, "3": {"stimulus": 22, "trial": 3, "rt": 691, "response": "Alpha"}, "2": {"stimulus": 21, "trial": 2, "rt": 771, "response": "Alpha"}, "5": {"stimulus": 62, "trial": 5, "rt": 859, "response": "Beta"}, "4": {"stimulus": 45, "trial": 4, "rt": 1443, "response": "Beta"}, "7": {"stimulus": 0, "trial": 7, "rt": 723, "response": "Alpha"}, "6": {"stimulus": 71, "trial": 6, "rt": 771, "response": "Beta"}, "9": {"stimulus": 46, "trial": 9, "rt": 931, "response": "Alpha"}, "8": {"stimulus": 6, "trial": 8, "rt": 515, "response": "Alpha"}, "78": {"stimulus": 12, "trial": 78, "rt": 483, "response": "Alpha"}, "51": {"stimulus": 41, "trial": 51, "rt": 915, "response": "Alpha"}, "39": {"stimulus": 72, "trial": 39, "rt": 1005, "response": "Beta"}, "65": {"stimulus": 69, "trial": 65, "rt": 779, "response": "Beta"}, "76": {"stimulus": 24, "trial": 76, "rt": 564, "response": "Alpha"}, "75": {"stimulus": 9, "trial": 75, "rt": 610, "response": "Alpha"}, "38": {"stimulus": 47, "trial": 38, "rt": 835, "response": "Beta"}, "73": {"stimulus": 26, "trial": 73, "rt": 514, "response": "Alpha"}, "72": {"stimulus": 29, "trial": 72, "rt": 523, "response": "Alpha"}, "71": {"stimulus": 53, "trial": 71, "rt": 898, "response": "Alpha"}, "70": {"stimulus": 4, "trial": 70, "rt": 827, "response": "Alpha"}, "59": {"stimulus": 44, "trial": 59, "rt": 907, "response": "Alpha"}, "79": {"stimulus": 43, "trial": 79, "rt": 492, "response": "Alpha"}, "58": {"stimulus": 31, "trial": 58, "rt": 859, "response": "Alpha"}, "11": {"stimulus": 36, "trial": 11, "rt": 587, "response": "Alpha"}, "10": {"stimulus": 14, "trial": 10, "rt": 659, "response": "Alpha"}, "13": {"stimulus": 65, "trial": 13, "rt": 1059, "response": "Beta"}, "12": {"stimulus": 23, "trial": 12, "rt": 611, "response": "Alpha"}, "15": {"stimulus": 1, "trial": 15, "rt": 755, "response": "Alpha"}, "14": {"stimulus": 19, "trial": 14, "rt": 1043, "response": "Alpha"}, "17": {"stimulus": 51, "trial": 17, "rt": 1993, "response": "Alpha"}, "16": {"stimulus": 27, "trial": 16, "rt": 730, "response": "Alpha"}, "19": {"stimulus": 74, "trial": 19, "rt": 540, "response": "Beta"}, "18": {"stimulus": 73, "trial": 18, "rt": 730, "response": "Beta"}, "31": {"stimulus": 79, "trial": 31, "rt": 907, "response": "Beta"}, "30": {"stimulus": 5, "trial": 30, "rt": 659, "response": "Alpha"}, "37": {"stimulus": 61, "trial": 37, "rt": 699, "response": "Beta"}, "36": {"stimulus": 67, "trial": 36, "rt": 963, "response": "Beta"}, "35": {"stimulus": 20, "trial": 35, "rt": 563, "response": "Alpha"}, "34": {"stimulus": 39, "trial": 34, "rt": 715, "response": "Alpha"}, "33": {"stimulus": 8, "trial": 33, "rt": 507, "response": "Alpha"}, "55": {"stimulus": 40, "trial": 55, "rt": 579, "response": "Alpha"}, "74": {"stimulus": 30, "trial": 74, "rt": 507, "response": "Alpha"}, "32": {"stimulus": 35, "trial": 32, "rt": 1114, "response": "Alpha"}, "57": {"stimulus": 3, "trial": 57, "rt": 699, "response": "Alpha"}, "50": {"stimulus": 80, "trial": 50, "rt": 580, "response": "Beta"}}}