{"generation": {"1": {"stimulus": 72, "trial": 1, "rt": 5959}, "0": {"stimulus": 8, "trial": 0, "rt": 27784}, "3": {"stimulus": 76, "trial": 3, "rt": 5384}, "2": {"stimulus": 4, "trial": 2, "rt": 17991}}, "info": {"finish": 1488822380472, "participant": 75, "exposed": true, "lab": false, "start": 1488822061479, "counterbalance": 4, "condition": "XOR", "browser": {"platform": "Win32", "userAgent": "Mozilla/5.0 (Windows NT 10.0; WOW64; rv:51.0) Gecko/20100101 Firefox/51.0"}}, "experiment": {"Paradigm": "TACL", "Stimuli": "Size-Color Squares", "Experiment": "Generating-Categories"}, "observation": {"11": {"stimulus": 70, "trial": 11, "rt": 1775}, "10": {"stimulus": 0, "trial": 10, "rt": 1626}, "1": {"stimulus": 0, "trial": 1, "rt": 3872}, "0": {"stimulus": 70, "trial": 0, "rt": 5694}, "3": {"stimulus": 80, "trial": 3, "rt": 2728}, "2": {"stimulus": 10, "trial": 2, "rt": 2778}, "5": {"stimulus": 70, "trial": 5, "rt": 1899}, "4": {"stimulus": 0, "trial": 4, "rt": 2603}, "7": {"stimulus": 10, "trial": 7, "rt": 1387}, "6": {"stimulus": 80, "trial": 6, "rt": 1450}, "9": {"stimulus": 80, "trial": 9, "rt": 1633}, "8": {"stimulus": 10, "trial": 8, "rt": 1579}}, "generalization": {"56": {"stimulus": 37, "trial": 56, "rt": 1777, "response": "Beta"}, "77": {"stimulus": 63, "trial": 77, "rt": 1199, "response": "Beta"}, "54": {"stimulus": 68, "trial": 54, "rt": 1568, "response": "Alpha"}, "42": {"stimulus": 62, "trial": 42, "rt": 1260, "response": "Alpha"}, "48": {"stimulus": 38, "trial": 48, "rt": 1878, "response": "Beta"}, "43": {"stimulus": 59, "trial": 43, "rt": 1060, "response": "Alpha"}, "60": {"stimulus": 58, "trial": 60, "rt": 1274, "response": "Beta"}, "61": {"stimulus": 11, "trial": 61, "rt": 1268, "response": "Alpha"}, "62": {"stimulus": 57, "trial": 62, "rt": 1335, "response": "Beta"}, "63": {"stimulus": 44, "trial": 63, "rt": 1338, "response": "Beta"}, "64": {"stimulus": 40, "trial": 64, "rt": 1096, "response": "Beta"}, "49": {"stimulus": 70, "trial": 49, "rt": 1326, "response": "Alpha"}, "66": {"stimulus": 3, "trial": 66, "rt": 1103, "response": "Alpha"}, "67": {"stimulus": 77, "trial": 67, "rt": 1269, "response": "Alpha"}, "68": {"stimulus": 24, "trial": 68, "rt": 1311, "response": "Beta"}, "69": {"stimulus": 27, "trial": 69, "rt": 1028, "response": "Beta"}, "80": {"stimulus": 71, "trial": 80, "rt": 1081, "response": "Alpha"}, "52": {"stimulus": 65, "trial": 52, "rt": 1403, "response": "Beta"}, "53": {"stimulus": 64, "trial": 53, "rt": 1161, "response": "Beta"}, "24": {"stimulus": 51, "trial": 24, "rt": 1120, "response": "Alpha"}, "25": {"stimulus": 10, "trial": 25, "rt": 1159, "response": "Alpha"}, "26": {"stimulus": 74, "trial": 26, "rt": 1279, "response": "Beta"}, "27": {"stimulus": 34, "trial": 27, "rt": 1418, "response": "Beta"}, "20": {"stimulus": 43, "trial": 20, "rt": 1616, "response": "Alpha"}, "21": {"stimulus": 48, "trial": 21, "rt": 1811, "response": "Beta"}, "22": {"stimulus": 17, "trial": 22, "rt": 1434, "response": "Beta"}, "23": {"stimulus": 25, "trial": 23, "rt": 1576, "response": "Alpha"}, "46": {"stimulus": 60, "trial": 46, "rt": 1333, "response": "Beta"}, "47": {"stimulus": 76, "trial": 47, "rt": 1752, "response": "Alpha"}, "44": {"stimulus": 55, "trial": 44, "rt": 1369, "response": "Beta"}, "45": {"stimulus": 42, "trial": 45, "rt": 1115, "response": "Beta"}, "28": {"stimulus": 75, "trial": 28, "rt": 1678, "response": "Alpha"}, "29": {"stimulus": 7, "trial": 29, "rt": 1562, "response": "Beta"}, "40": {"stimulus": 2, "trial": 40, "rt": 1874, "response": "Beta"}, "41": {"stimulus": 30, "trial": 41, "rt": 1258, "response": "Beta"}, "1": {"stimulus": 66, "trial": 1, "rt": 2264, "response": "Beta"}, "0": {"stimulus": 12, "trial": 0, "rt": 4759, "response": "Beta"}, "3": {"stimulus": 5, "trial": 3, "rt": 5054, "response": "Alpha"}, "2": {"stimulus": 72, "trial": 2, "rt": 1934, "response": "Beta"}, "5": {"stimulus": 46, "trial": 5, "rt": 1975, "response": "Beta"}, "4": {"stimulus": 31, "trial": 4, "rt": 2213, "response": "Alpha"}, "7": {"stimulus": 47, "trial": 7, "rt": 3365, "response": "Alpha"}, "6": {"stimulus": 1, "trial": 6, "rt": 1786, "response": "Alpha"}, "9": {"stimulus": 28, "trial": 9, "rt": 1798, "response": "Beta"}, "8": {"stimulus": 35, "trial": 8, "rt": 3009, "response": "Alpha"}, "78": {"stimulus": 36, "trial": 78, "rt": 1199, "response": "Beta"}, "51": {"stimulus": 80, "trial": 51, "rt": 1281, "response": "Alpha"}, "39": {"stimulus": 9, "trial": 39, "rt": 1596, "response": "Alpha"}, "65": {"stimulus": 15, "trial": 65, "rt": 1485, "response": "Alpha"}, "76": {"stimulus": 19, "trial": 76, "rt": 1214, "response": "Alpha"}, "75": {"stimulus": 50, "trial": 75, "rt": 1199, "response": "Beta"}, "38": {"stimulus": 14, "trial": 38, "rt": 1337, "response": "Alpha"}, "73": {"stimulus": 32, "trial": 73, "rt": 1440, "response": "Alpha"}, "72": {"stimulus": 73, "trial": 72, "rt": 1074, "response": "Beta"}, "71": {"stimulus": 26, "trial": 71, "rt": 1483, "response": "Beta"}, "70": {"stimulus": 0, "trial": 70, "rt": 1296, "response": "Alpha"}, "59": {"stimulus": 23, "trial": 59, "rt": 1474, "response": "Alpha"}, "79": {"stimulus": 61, "trial": 79, "rt": 1248, "response": "Alpha"}, "58": {"stimulus": 56, "trial": 58, "rt": 1540, "response": "Beta"}, "11": {"stimulus": 41, "trial": 11, "rt": 1677, "response": "Alpha"}, "10": {"stimulus": 39, "trial": 10, "rt": 2399, "response": "Beta"}, "13": {"stimulus": 78, "trial": 13, "rt": 1124, "response": "Alpha"}, "12": {"stimulus": 79, "trial": 12, "rt": 2962, "response": "Alpha"}, "15": {"stimulus": 21, "trial": 15, "rt": 1318, "response": "Beta"}, "14": {"stimulus": 16, "trial": 14, "rt": 1642, "response": "Beta"}, "17": {"stimulus": 52, "trial": 17, "rt": 1392, "response": "Alpha"}, "16": {"stimulus": 67, "trial": 16, "rt": 1209, "response": "Beta"}, "19": {"stimulus": 6, "trial": 19, "rt": 1505, "response": "Beta"}, "18": {"stimulus": 49, "trial": 18, "rt": 1501, "response": "Beta"}, "31": {"stimulus": 13, "trial": 31, "rt": 1432, "response": "Beta"}, "30": {"stimulus": 20, "trial": 30, "rt": 1348, "response": "Alpha"}, "37": {"stimulus": 8, "trial": 37, "rt": 1554, "response": "Beta"}, "36": {"stimulus": 45, "trial": 36, "rt": 1389, "response": "Beta"}, "35": {"stimulus": 18, "trial": 35, "rt": 1223, "response": "Alpha"}, "34": {"stimulus": 54, "trial": 34, "rt": 1319, "response": "Beta"}, "33": {"stimulus": 4, "trial": 33, "rt": 1230, "response": "Beta"}, "55": {"stimulus": 29, "trial": 55, "rt": 1498, "response": "Beta"}, "74": {"stimulus": 53, "trial": 74, "rt": 1134, "response": "Alpha"}, "32": {"stimulus": 22, "trial": 32, "rt": 1017, "response": "Beta"}, "57": {"stimulus": 69, "trial": 57, "rt": 1638, "response": "Alpha"}, "50": {"stimulus": 33, "trial": 50, "rt": 1290, "response": "Beta"}}}