{"generation": {"1": {"stimulus": 80, "trial": 1, "rt": 16486}, "0": {"stimulus": 71, "trial": 0, "rt": 67132}, "3": {"stimulus": 50, "trial": 3, "rt": 11621}, "2": {"stimulus": 70, "trial": 2, "rt": 13583}}, "info": {"finish": 1488822677699, "participant": 76, "exposed": true, "lab": false, "start": 1488822072212, "counterbalance": 7, "condition": "XOR", "browser": {"platform": "Win32", "userAgent": "Mozilla/5.0 (Windows NT 10.0; WOW64) AppleWebKit/537.36 (KHTML, like Gecko) Chrome/56.0.2924.87 Safari/537.36"}}, "experiment": {"Paradigm": "TACL", "Stimuli": "Size-Color Squares", "Experiment": "Generating-Categories"}, "observation": {"11": {"stimulus": 10, "trial": 11, "rt": 2623}, "10": {"stimulus": 80, "trial": 10, "rt": 2207}, "1": {"stimulus": 80, "trial": 1, "rt": 3726}, "0": {"stimulus": 70, "trial": 0, "rt": 5948}, "3": {"stimulus": 0, "trial": 3, "rt": 3586}, "2": {"stimulus": 10, "trial": 2, "rt": 4269}, "5": {"stimulus": 80, "trial": 5, "rt": 2846}, "4": {"stimulus": 10, "trial": 4, "rt": 2971}, "7": {"stimulus": 70, "trial": 7, "rt": 2593}, "6": {"stimulus": 0, "trial": 6, "rt": 1915}, "9": {"stimulus": 0, "trial": 9, "rt": 2473}, "8": {"stimulus": 70, "trial": 8, "rt": 2124}}, "generalization": {"56": {"stimulus": 33, "trial": 56, "rt": 2479, "response": "Beta"}, "77": {"stimulus": 61, "trial": 77, "rt": 2428, "response": "Alpha"}, "54": {"stimulus": 63, "trial": 54, "rt": 2301, "response": "Alpha"}, "42": {"stimulus": 70, "trial": 42, "rt": 1516, "response": "Beta"}, "48": {"stimulus": 56, "trial": 48, "rt": 2486, "response": "Beta"}, "43": {"stimulus": 46, "trial": 43, "rt": 2685, "response": "Alpha"}, "60": {"stimulus": 55, "trial": 60, "rt": 2653, "response": "Alpha"}, "61": {"stimulus": 54, "trial": 61, "rt": 1268, "response": "Alpha"}, "62": {"stimulus": 71, "trial": 62, "rt": 1957, "response": "Beta"}, "63": {"stimulus": 60, "trial": 63, "rt": 1254, "response": "Beta"}, "64": {"stimulus": 10, "trial": 64, "rt": 3603, "response": "Alpha"}, "49": {"stimulus": 15, "trial": 49, "rt": 1400, "response": "Alpha"}, "66": {"stimulus": 50, "trial": 66, "rt": 1616, "response": "Alpha"}, "67": {"stimulus": 51, "trial": 67, "rt": 1568, "response": "Beta"}, "68": {"stimulus": 69, "trial": 68, "rt": 1134, "response": "Beta"}, "69": {"stimulus": 74, "trial": 69, "rt": 1806, "response": "Alpha"}, "80": {"stimulus": 37, "trial": 80, "rt": 2523, "response": "Beta"}, "52": {"stimulus": 13, "trial": 52, "rt": 2685, "response": "Beta"}, "53": {"stimulus": 31, "trial": 53, "rt": 1685, "response": "Beta"}, "24": {"stimulus": 2, "trial": 24, "rt": 4450, "response": "Beta"}, "25": {"stimulus": 12, "trial": 25, "rt": 1517, "response": "Beta"}, "26": {"stimulus": 43, "trial": 26, "rt": 2432, "response": "Beta"}, "27": {"stimulus": 52, "trial": 27, "rt": 1438, "response": "Alpha"}, "20": {"stimulus": 79, "trial": 20, "rt": 2154, "response": "Beta"}, "21": {"stimulus": 66, "trial": 21, "rt": 2987, "response": "Alpha"}, "22": {"stimulus": 32, "trial": 22, "rt": 2056, "response": "Beta"}, "23": {"stimulus": 62, "trial": 23, "rt": 4459, "response": "Alpha"}, "46": {"stimulus": 1, "trial": 46, "rt": 1923, "response": "Alpha"}, "47": {"stimulus": 45, "trial": 47, "rt": 2170, "response": "Alpha"}, "44": {"stimulus": 30, "trial": 44, "rt": 2206, "response": "Beta"}, "45": {"stimulus": 64, "trial": 45, "rt": 2950, "response": "Alpha"}, "28": {"stimulus": 3, "trial": 28, "rt": 1469, "response": "Beta"}, "29": {"stimulus": 65, "trial": 29, "rt": 2979, "response": "Beta"}, "40": {"stimulus": 14, "trial": 40, "rt": 4733, "response": "Beta"}, "41": {"stimulus": 9, "trial": 41, "rt": 2700, "response": "Alpha"}, "1": {"stimulus": 29, "trial": 1, "rt": 3455, "response": "Beta"}, "0": {"stimulus": 59, "trial": 0, "rt": 6217, "response": "Beta"}, "3": {"stimulus": 57, "trial": 3, "rt": 1940, "response": "Beta"}, "2": {"stimulus": 58, "trial": 2, "rt": 2114, "response": "Beta"}, "5": {"stimulus": 27, "trial": 5, "rt": 2845, "response": "Alpha"}, "4": {"stimulus": 47, "trial": 4, "rt": 3218, "response": "Beta"}, "7": {"stimulus": 6, "trial": 7, "rt": 5119, "response": "Alpha"}, "6": {"stimulus": 28, "trial": 6, "rt": 4556, "response": "Beta"}, "9": {"stimulus": 34, "trial": 9, "rt": 2154, "response": "Alpha"}, "8": {"stimulus": 5, "trial": 8, "rt": 2123, "response": "Beta"}, "78": {"stimulus": 7, "trial": 78, "rt": 1866, "response": "Alpha"}, "51": {"stimulus": 19, "trial": 51, "rt": 1901, "response": "Alpha"}, "39": {"stimulus": 20, "trial": 39, "rt": 1654, "response": "Beta"}, "65": {"stimulus": 17, "trial": 65, "rt": 2555, "response": "Beta"}, "76": {"stimulus": 36, "trial": 76, "rt": 1427, "response": "Alpha"}, "75": {"stimulus": 68, "trial": 75, "rt": 4539, "response": "Beta"}, "38": {"stimulus": 0, "trial": 38, "rt": 2647, "response": "Alpha"}, "73": {"stimulus": 8, "trial": 73, "rt": 2095, "response": "Beta"}, "72": {"stimulus": 73, "trial": 72, "rt": 2227, "response": "Beta"}, "71": {"stimulus": 11, "trial": 71, "rt": 116822, "response": "Alpha"}, "70": {"stimulus": 18, "trial": 70, "rt": 1462, "response": "Beta"}, "59": {"stimulus": 25, "trial": 59, "rt": 1963, "response": "Beta"}, "79": {"stimulus": 77, "trial": 79, "rt": 1650, "response": "Beta"}, "58": {"stimulus": 41, "trial": 58, "rt": 2121, "response": "Alpha"}, "11": {"stimulus": 48, "trial": 11, "rt": 1617, "response": "Alpha"}, "10": {"stimulus": 42, "trial": 10, "rt": 5002, "response": "Beta"}, "13": {"stimulus": 35, "trial": 13, "rt": 2116, "response": "Beta"}, "12": {"stimulus": 39, "trial": 12, "rt": 2269, "response": "Alpha"}, "15": {"stimulus": 72, "trial": 15, "rt": 5648, "response": "Beta"}, "14": {"stimulus": 78, "trial": 14, "rt": 1607, "response": "Beta"}, "17": {"stimulus": 75, "trial": 17, "rt": 1853, "response": "Beta"}, "16": {"stimulus": 21, "trial": 16, "rt": 2984, "response": "Alpha"}, "19": {"stimulus": 16, "trial": 19, "rt": 2407, "response": "Alpha"}, "18": {"stimulus": 23, "trial": 18, "rt": 1902, "response": "Alpha"}, "31": {"stimulus": 38, "trial": 31, "rt": 1499, "response": "Alpha"}, "30": {"stimulus": 22, "trial": 30, "rt": 1568, "response": "Alpha"}, "37": {"stimulus": 24, "trial": 37, "rt": 3838, "response": "Alpha"}, "36": {"stimulus": 67, "trial": 36, "rt": 1787, "response": "Alpha"}, "35": {"stimulus": 80, "trial": 35, "rt": 4866, "response": "Beta"}, "34": {"stimulus": 76, "trial": 34, "rt": 1855, "response": "Beta"}, "33": {"stimulus": 44, "trial": 33, "rt": 1586, "response": "Alpha"}, "55": {"stimulus": 4, "trial": 55, "rt": 3171, "response": "Beta"}, "74": {"stimulus": 49, "trial": 74, "rt": 2639, "response": "Beta"}, "32": {"stimulus": 26, "trial": 32, "rt": 2205, "response": "Alpha"}, "57": {"stimulus": 53, "trial": 57, "rt": 1588, "response": "Beta"}, "50": {"stimulus": 40, "trial": 50, "rt": 2239, "response": "Beta"}}}