{"generation": {"1": {"stimulus": 3, "trial": 1, "rt": 7214}, "0": {"stimulus": 66, "trial": 0, "rt": 14330}, "3": {"stimulus": 75, "trial": 3, "rt": 8733}, "2": {"stimulus": 48, "trial": 2, "rt": 5099}}, "info": {"participant": 77, "exposed": true, "lab": false, "start": 1488822082312, "counterbalance": 4, "condition": "XOR", "browser": {"platform": "Win32", "userAgent": "Mozilla/5.0 (Windows NT 10.0; WOW64) AppleWebKit/537.36 (KHTML, like Gecko) Chrome/56.0.2924.87 Safari/537.36"}}, "experiment": {"Paradigm": "TACL", "Stimuli": "Size-Color Squares", "Experiment": "Generating-Categories"}, "observation": {"11": {"stimulus": 80, "trial": 11, "rt": 1283}, "10": {"stimulus": 70, "trial": 10, "rt": 1393}, "1": {"stimulus": 10, "trial": 1, "rt": 2388}, "0": {"stimulus": 80, "trial": 0, "rt": 3706}, "3": {"stimulus": 0, "trial": 3, "rt": 3630}, "2": {"stimulus": 70, "trial": 2, "rt": 1049}, "5": {"stimulus": 0, "trial": 5, "rt": 2083}, "4": {"stimulus": 80, "trial": 4, "rt": 1433}, "7": {"stimulus": 70, "trial": 7, "rt": 1312}, "6": {"stimulus": 10, "trial": 6, "rt": 1131}, "9": {"stimulus": 10, "trial": 9, "rt": 1062}, "8": {"stimulus": 0, "trial": 8, "rt": 993}}, "generalization": {"56": {"stimulus": 77, "trial": 56, "rt": 775, "response": "Beta"}, "77": {"stimulus": 61, "trial": 77, "rt": 1110, "response": "Alpha"}, "54": {"stimulus": 39, "trial": 54, "rt": 1263, "response": "Beta"}, "42": {"stimulus": 79, "trial": 42, "rt": 1667, "response": "Alpha"}, "48": {"stimulus": 6, "trial": 48, "rt": 870, "response": "Alpha"}, "43": {"stimulus": 22, "trial": 43, "rt": 1248, "response": "Beta"}, "60": {"stimulus": 18, "trial": 60, "rt": 1564, "response": "Alpha"}, "61": {"stimulus": 28, "trial": 61, "rt": 2860, "response": "Beta"}, "62": {"stimulus": 51, "trial": 62, "rt": 2566, "response": "Alpha"}, "63": {"stimulus": 1, "trial": 63, "rt": 1909, "response": "Beta"}, "64": {"stimulus": 0, "trial": 64, "rt": 1135, "response": "Alpha"}, "49": {"stimulus": 53, "trial": 49, "rt": 827, "response": "Alpha"}, "66": {"stimulus": 41, "trial": 66, "rt": 2414, "response": "Beta"}, "67": {"stimulus": 78, "trial": 67, "rt": 1441, "response": "Alpha"}, "68": {"stimulus": 14, "trial": 68, "rt": 828, "response": "Alpha"}, "69": {"stimulus": 45, "trial": 69, "rt": 1524, "response": "Alpha"}, "80": {"stimulus": 19, "trial": 80, "rt": 1413, "response": "Beta"}, "52": {"stimulus": 59, "trial": 52, "rt": 1073, "response": "Beta"}, "53": {"stimulus": 24, "trial": 53, "rt": 2604, "response": "Alpha"}, "24": {"stimulus": 21, "trial": 24, "rt": 1542, "response": "Beta"}, "25": {"stimulus": 32, "trial": 25, "rt": 2169, "response": "Alpha"}, "26": {"stimulus": 13, "trial": 26, "rt": 1388, "response": "Beta"}, "27": {"stimulus": 57, "trial": 27, "rt": 1332, "response": "Beta"}, "20": {"stimulus": 30, "trial": 20, "rt": 1194, "response": "Beta"}, "21": {"stimulus": 29, "trial": 21, "rt": 1526, "response": "Beta"}, "22": {"stimulus": 72, "trial": 22, "rt": 1303, "response": "Alpha"}, "23": {"stimulus": 25, "trial": 23, "rt": 1544, "response": "Alpha"}, "46": {"stimulus": 60, "trial": 46, "rt": 1197, "response": "Alpha"}, "47": {"stimulus": 8, "trial": 47, "rt": 738, "response": "Alpha"}, "44": {"stimulus": 10, "trial": 44, "rt": 1074, "response": "Alpha"}, "45": {"stimulus": 74, "trial": 45, "rt": 1971, "response": "Beta"}, "28": {"stimulus": 44, "trial": 28, "rt": 1779, "response": "Alpha"}, "29": {"stimulus": 55, "trial": 29, "rt": 1025, "response": "Alpha"}, "40": {"stimulus": 11, "trial": 40, "rt": 891, "response": "Beta"}, "41": {"stimulus": 5, "trial": 41, "rt": 1359, "response": "Beta"}, "1": {"stimulus": 9, "trial": 1, "rt": 1929, "response": "Alpha"}, "0": {"stimulus": 16, "trial": 0, "rt": 2757, "response": "Alpha"}, "3": {"stimulus": 7, "trial": 3, "rt": 1079, "response": "Alpha"}, "2": {"stimulus": 42, "trial": 2, "rt": 1097, "response": "Alpha"}, "5": {"stimulus": 64, "trial": 5, "rt": 963, "response": "Alpha"}, "4": {"stimulus": 33, "trial": 4, "rt": 1023, "response": "Alpha"}, "7": {"stimulus": 70, "trial": 7, "rt": 1295, "response": "Alpha"}, "6": {"stimulus": 66, "trial": 6, "rt": 1863, "response": "Beta"}, "9": {"stimulus": 26, "trial": 9, "rt": 715, "response": "Alpha"}, "8": {"stimulus": 35, "trial": 8, "rt": 1071, "response": "Alpha"}, "78": {"stimulus": 36, "trial": 78, "rt": 1736, "response": "Alpha"}, "51": {"stimulus": 12, "trial": 51, "rt": 1362, "response": "Beta"}, "39": {"stimulus": 48, "trial": 39, "rt": 800, "response": "Beta"}, "65": {"stimulus": 58, "trial": 65, "rt": 1358, "response": "Beta"}, "76": {"stimulus": 75, "trial": 76, "rt": 3289, "response": "Beta"}, "75": {"stimulus": 3, "trial": 75, "rt": 11344, "response": "Beta"}, "38": {"stimulus": 67, "trial": 38, "rt": 1134, "response": "Beta"}, "73": {"stimulus": 43, "trial": 73, "rt": 1233, "response": "Alpha"}, "72": {"stimulus": 34, "trial": 72, "rt": 1009, "response": "Alpha"}, "71": {"stimulus": 73, "trial": 71, "rt": 1410, "response": "Beta"}, "70": {"stimulus": 37, "trial": 70, "rt": 1676, "response": "Beta"}, "59": {"stimulus": 80, "trial": 59, "rt": 1469, "response": "Alpha"}, "79": {"stimulus": 15, "trial": 79, "rt": 2636, "response": "Alpha"}, "58": {"stimulus": 27, "trial": 58, "rt": 1040, "response": "Alpha"}, "11": {"stimulus": 56, "trial": 11, "rt": 1904, "response": "Beta"}, "10": {"stimulus": 69, "trial": 10, "rt": 1286, "response": "Beta"}, "13": {"stimulus": 47, "trial": 13, "rt": 1626, "response": "Beta"}, "12": {"stimulus": 52, "trial": 12, "rt": 1306, "response": "Alpha"}, "15": {"stimulus": 50, "trial": 15, "rt": 1573, "response": "Beta"}, "14": {"stimulus": 46, "trial": 14, "rt": 1155, "response": "Alpha"}, "17": {"stimulus": 40, "trial": 17, "rt": 895, "response": "Alpha"}, "16": {"stimulus": 76, "trial": 16, "rt": 1222, "response": "Alpha"}, "19": {"stimulus": 4, "trial": 19, "rt": 1779, "response": "Alpha"}, "18": {"stimulus": 38, "trial": 18, "rt": 1438, "response": "Beta"}, "31": {"stimulus": 20, "trial": 31, "rt": 2724, "response": "Beta"}, "30": {"stimulus": 63, "trial": 30, "rt": 931, "response": "Alpha"}, "37": {"stimulus": 49, "trial": 37, "rt": 1726, "response": "Beta"}, "36": {"stimulus": 65, "trial": 36, "rt": 1287, "response": "Beta"}, "35": {"stimulus": 71, "trial": 35, "rt": 1623, "response": "Alpha"}, "34": {"stimulus": 23, "trial": 34, "rt": 3833, "response": "Alpha"}, "33": {"stimulus": 2, "trial": 33, "rt": 1456, "response": "Beta"}, "55": {"stimulus": 31, "trial": 55, "rt": 1309, "response": "Beta"}, "74": {"stimulus": 62, "trial": 74, "rt": 2578, "response": "Alpha"}, "32": {"stimulus": 17, "trial": 32, "rt": 2372, "response": "Alpha"}, "57": {"stimulus": 54, "trial": 57, "rt": 1982, "response": "Alpha"}, "50": {"stimulus": 68, "trial": 50, "rt": 1425, "response": "Beta"}}}