{"generation": {"1": {"stimulus": 35, "trial": 1, "rt": 9930}, "0": {"stimulus": 8, "trial": 0, "rt": 12325}, "3": {"stimulus": 62, "trial": 3, "rt": 7713}, "2": {"stimulus": 80, "trial": 2, "rt": 8117}}, "info": {"finish": 1488822423951, "participant": 78, "exposed": true, "lab": false, "start": 1488822080667, "counterbalance": 1, "condition": "XOR", "browser": {"platform": "Win32", "userAgent": "Mozilla/5.0 (Windows NT 10.0; Win64; x64) AppleWebKit/537.36 (KHTML, like Gecko) Chrome/56.0.2924.87 Safari/537.36"}}, "experiment": {"Paradigm": "TACL", "Stimuli": "Size-Color Squares", "Experiment": "Generating-Categories"}, "observation": {"11": {"stimulus": 0, "trial": 11, "rt": 1804}, "10": {"stimulus": 70, "trial": 10, "rt": 2392}, "1": {"stimulus": 10, "trial": 1, "rt": 2479}, "0": {"stimulus": 0, "trial": 0, "rt": 2741}, "3": {"stimulus": 70, "trial": 3, "rt": 3191}, "2": {"stimulus": 80, "trial": 2, "rt": 4371}, "5": {"stimulus": 10, "trial": 5, "rt": 2799}, "4": {"stimulus": 0, "trial": 4, "rt": 2691}, "7": {"stimulus": 70, "trial": 7, "rt": 2687}, "6": {"stimulus": 80, "trial": 6, "rt": 3135}, "9": {"stimulus": 80, "trial": 9, "rt": 2778}, "8": {"stimulus": 10, "trial": 8, "rt": 2810}}, "generalization": {"56": {"stimulus": 38, "trial": 56, "rt": 1415, "response": "Beta"}, "77": {"stimulus": 64, "trial": 77, "rt": 1054, "response": "Alpha"}, "54": {"stimulus": 70, "trial": 54, "rt": 695, "response": "Beta"}, "42": {"stimulus": 46, "trial": 42, "rt": 822, "response": "Beta"}, "48": {"stimulus": 12, "trial": 48, "rt": 840, "response": "Alpha"}, "43": {"stimulus": 66, "trial": 43, "rt": 1284, "response": "Beta"}, "60": {"stimulus": 4, "trial": 60, "rt": 865, "response": "Alpha"}, "61": {"stimulus": 18, "trial": 61, "rt": 673, "response": "Alpha"}, "62": {"stimulus": 35, "trial": 62, "rt": 1222, "response": "Beta"}, "63": {"stimulus": 77, "trial": 63, "rt": 1082, "response": "Alpha"}, "64": {"stimulus": 78, "trial": 64, "rt": 680, "response": "Alpha"}, "49": {"stimulus": 6, "trial": 49, "rt": 890, "response": "Alpha"}, "66": {"stimulus": 7, "trial": 66, "rt": 600, "response": "Beta"}, "67": {"stimulus": 55, "trial": 67, "rt": 932, "response": "Alpha"}, "68": {"stimulus": 5, "trial": 68, "rt": 942, "response": "Alpha"}, "69": {"stimulus": 28, "trial": 69, "rt": 1403, "response": "Beta"}, "80": {"stimulus": 36, "trial": 80, "rt": 558, "response": "Beta"}, "52": {"stimulus": 54, "trial": 52, "rt": 1141, "response": "Alpha"}, "53": {"stimulus": 60, "trial": 53, "rt": 994, "response": "Beta"}, "24": {"stimulus": 44, "trial": 24, "rt": 1180, "response": "Beta"}, "25": {"stimulus": 3, "trial": 25, "rt": 899, "response": "Alpha"}, "26": {"stimulus": 23, "trial": 26, "rt": 2581, "response": "Alpha"}, "27": {"stimulus": 74, "trial": 27, "rt": 1004, "response": "Alpha"}, "20": {"stimulus": 11, "trial": 20, "rt": 1129, "response": "Alpha"}, "21": {"stimulus": 49, "trial": 21, "rt": 1145, "response": "Beta"}, "22": {"stimulus": 56, "trial": 22, "rt": 988, "response": "Alpha"}, "23": {"stimulus": 2, "trial": 23, "rt": 923, "response": "Alpha"}, "46": {"stimulus": 61, "trial": 46, "rt": 1173, "response": "Beta"}, "47": {"stimulus": 14, "trial": 47, "rt": 1578, "response": "Alpha"}, "44": {"stimulus": 57, "trial": 44, "rt": 1095, "response": "Beta"}, "45": {"stimulus": 43, "trial": 45, "rt": 1671, "response": "Beta"}, "28": {"stimulus": 13, "trial": 28, "rt": 986, "response": "Alpha"}, "29": {"stimulus": 19, "trial": 29, "rt": 949, "response": "Alpha"}, "40": {"stimulus": 48, "trial": 40, "rt": 1580, "response": "Beta"}, "41": {"stimulus": 47, "trial": 41, "rt": 1027, "response": "Beta"}, "1": {"stimulus": 0, "trial": 1, "rt": 1618, "response": "Alpha"}, "0": {"stimulus": 26, "trial": 0, "rt": 3005, "response": "Beta"}, "3": {"stimulus": 63, "trial": 3, "rt": 1321, "response": "Alpha"}, "2": {"stimulus": 40, "trial": 2, "rt": 1905, "response": "Beta"}, "5": {"stimulus": 21, "trial": 5, "rt": 1979, "response": "Alpha"}, "4": {"stimulus": 9, "trial": 4, "rt": 1122, "response": "Alpha"}, "7": {"stimulus": 17, "trial": 7, "rt": 1291, "response": "Beta"}, "6": {"stimulus": 76, "trial": 6, "rt": 1447, "response": "Alpha"}, "9": {"stimulus": 80, "trial": 9, "rt": 986, "response": "Beta"}, "8": {"stimulus": 29, "trial": 8, "rt": 1292, "response": "Alpha"}, "78": {"stimulus": 68, "trial": 78, "rt": 749, "response": "Alpha"}, "51": {"stimulus": 79, "trial": 51, "rt": 734, "response": "Beta"}, "39": {"stimulus": 67, "trial": 39, "rt": 2200, "response": "Beta"}, "65": {"stimulus": 16, "trial": 65, "rt": 898, "response": "Beta"}, "76": {"stimulus": 62, "trial": 76, "rt": 889, "response": "Beta"}, "75": {"stimulus": 34, "trial": 75, "rt": 557, "response": "Beta"}, "38": {"stimulus": 10, "trial": 38, "rt": 969, "response": "Alpha"}, "73": {"stimulus": 39, "trial": 73, "rt": 779, "response": "Beta"}, "72": {"stimulus": 15, "trial": 72, "rt": 841, "response": "Beta"}, "71": {"stimulus": 27, "trial": 71, "rt": 641, "response": "Beta"}, "70": {"stimulus": 45, "trial": 70, "rt": 1132, "response": "Beta"}, "59": {"stimulus": 65, "trial": 59, "rt": 925, "response": "Alpha"}, "79": {"stimulus": 37, "trial": 79, "rt": 1131, "response": "Beta"}, "58": {"stimulus": 69, "trial": 58, "rt": 1200, "response": "Beta"}, "11": {"stimulus": 25, "trial": 11, "rt": 1138, "response": "Beta"}, "10": {"stimulus": 53, "trial": 10, "rt": 1055, "response": "Beta"}, "13": {"stimulus": 31, "trial": 13, "rt": 890, "response": "Alpha"}, "12": {"stimulus": 75, "trial": 12, "rt": 902, "response": "Alpha"}, "15": {"stimulus": 59, "trial": 15, "rt": 1071, "response": "Alpha"}, "14": {"stimulus": 22, "trial": 14, "rt": 803, "response": "Alpha"}, "17": {"stimulus": 72, "trial": 17, "rt": 1052, "response": "Alpha"}, "16": {"stimulus": 20, "trial": 16, "rt": 1038, "response": "Alpha"}, "19": {"stimulus": 73, "trial": 19, "rt": 1032, "response": "Alpha"}, "18": {"stimulus": 50, "trial": 18, "rt": 2099, "response": "Beta"}, "31": {"stimulus": 8, "trial": 31, "rt": 1034, "response": "Beta"}, "30": {"stimulus": 1, "trial": 30, "rt": 971, "response": "Alpha"}, "37": {"stimulus": 42, "trial": 37, "rt": 1054, "response": "Beta"}, "36": {"stimulus": 30, "trial": 36, "rt": 1168, "response": "Beta"}, "35": {"stimulus": 32, "trial": 35, "rt": 1286, "response": "Beta"}, "34": {"stimulus": 24, "trial": 34, "rt": 1264, "response": "Beta"}, "33": {"stimulus": 52, "trial": 33, "rt": 979, "response": "Beta"}, "55": {"stimulus": 33, "trial": 55, "rt": 655, "response": "Beta"}, "74": {"stimulus": 41, "trial": 74, "rt": 619, "response": "Beta"}, "32": {"stimulus": 51, "trial": 32, "rt": 1687, "response": "Beta"}, "57": {"stimulus": 58, "trial": 57, "rt": 2539, "response": "Alpha"}, "50": {"stimulus": 71, "trial": 50, "rt": 1235, "response": "Beta"}}}