{"generation": {"1": {"stimulus": 72, "trial": 1, "rt": 8122}, "0": {"stimulus": 80, "trial": 0, "rt": 26786}, "3": {"stimulus": 74, "trial": 3, "rt": 7458}, "2": {"stimulus": 79, "trial": 2, "rt": 11010}}, "info": {"finish": 1488822373335, "participant": 80, "exposed": true, "lab": false, "start": 1488822083485, "counterbalance": 2, "condition": "Cluster", "browser": {"platform": "Win32", "userAgent": "Mozilla/5.0 (Windows NT 10.0; WOW64) AppleWebKit/537.36 (KHTML, like Gecko) Chrome/56.0.2924.87 Safari/537.36"}}, "experiment": {"Paradigm": "TACL", "Stimuli": "Size-Color Squares", "Experiment": "Generating-Categories"}, "observation": {"11": {"stimulus": 16, "trial": 11, "rt": 1883}, "10": {"stimulus": 32, "trial": 10, "rt": 2859}, "1": {"stimulus": 16, "trial": 1, "rt": 2811}, "0": {"stimulus": 32, "trial": 0, "rt": 3992}, "3": {"stimulus": 14, "trial": 3, "rt": 3771}, "2": {"stimulus": 34, "trial": 2, "rt": 5011}, "5": {"stimulus": 34, "trial": 5, "rt": 2243}, "4": {"stimulus": 14, "trial": 4, "rt": 3811}, "7": {"stimulus": 16, "trial": 7, "rt": 3003}, "6": {"stimulus": 32, "trial": 6, "rt": 3099}, "9": {"stimulus": 14, "trial": 9, "rt": 1947}, "8": {"stimulus": 34, "trial": 8, "rt": 2516}}, "generalization": {"56": {"stimulus": 30, "trial": 56, "rt": 530, "response": "Alpha"}, "77": {"stimulus": 79, "trial": 77, "rt": 451, "response": "Beta"}, "54": {"stimulus": 37, "trial": 54, "rt": 650, "response": "Alpha"}, "42": {"stimulus": 61, "trial": 42, "rt": 4578, "response": "Beta"}, "48": {"stimulus": 34, "trial": 48, "rt": 955, "response": "Alpha"}, "43": {"stimulus": 29, "trial": 43, "rt": 1018, "response": "Alpha"}, "60": {"stimulus": 56, "trial": 60, "rt": 578, "response": "Beta"}, "61": {"stimulus": 11, "trial": 61, "rt": 899, "response": "Alpha"}, "62": {"stimulus": 70, "trial": 62, "rt": 1091, "response": "Beta"}, "63": {"stimulus": 8, "trial": 63, "rt": 715, "response": "Alpha"}, "64": {"stimulus": 31, "trial": 64, "rt": 811, "response": "Alpha"}, "49": {"stimulus": 17, "trial": 49, "rt": 587, "response": "Alpha"}, "66": {"stimulus": 50, "trial": 66, "rt": 627, "response": "Alpha"}, "67": {"stimulus": 76, "trial": 67, "rt": 875, "response": "Beta"}, "68": {"stimulus": 23, "trial": 68, "rt": 1099, "response": "Alpha"}, "69": {"stimulus": 12, "trial": 69, "rt": 580, "response": "Alpha"}, "80": {"stimulus": 2, "trial": 80, "rt": 859, "response": "Alpha"}, "52": {"stimulus": 15, "trial": 52, "rt": 779, "response": "Alpha"}, "53": {"stimulus": 39, "trial": 53, "rt": 683, "response": "Alpha"}, "24": {"stimulus": 6, "trial": 24, "rt": 667, "response": "Alpha"}, "25": {"stimulus": 53, "trial": 25, "rt": 2484, "response": "Alpha"}, "26": {"stimulus": 72, "trial": 26, "rt": 811, "response": "Beta"}, "27": {"stimulus": 42, "trial": 27, "rt": 971, "response": "Alpha"}, "20": {"stimulus": 14, "trial": 20, "rt": 979, "response": "Alpha"}, "21": {"stimulus": 64, "trial": 21, "rt": 1020, "response": "Beta"}, "22": {"stimulus": 44, "trial": 22, "rt": 1675, "response": "Alpha"}, "23": {"stimulus": 38, "trial": 23, "rt": 700, "response": "Alpha"}, "46": {"stimulus": 27, "trial": 46, "rt": 899, "response": "Alpha"}, "47": {"stimulus": 73, "trial": 47, "rt": 1572, "response": "Beta"}, "44": {"stimulus": 10, "trial": 44, "rt": 562, "response": "Alpha"}, "45": {"stimulus": 68, "trial": 45, "rt": 954, "response": "Beta"}, "28": {"stimulus": 71, "trial": 28, "rt": 979, "response": "Beta"}, "29": {"stimulus": 65, "trial": 29, "rt": 803, "response": "Beta"}, "40": {"stimulus": 0, "trial": 40, "rt": 875, "response": "Alpha"}, "41": {"stimulus": 22, "trial": 41, "rt": 770, "response": "Alpha"}, "1": {"stimulus": 26, "trial": 1, "rt": 1579, "response": "Alpha"}, "0": {"stimulus": 28, "trial": 0, "rt": 3266, "response": "Alpha"}, "3": {"stimulus": 9, "trial": 3, "rt": 1315, "response": "Alpha"}, "2": {"stimulus": 66, "trial": 2, "rt": 1275, "response": "Beta"}, "5": {"stimulus": 52, "trial": 5, "rt": 3051, "response": "Alpha"}, "4": {"stimulus": 62, "trial": 4, "rt": 1099, "response": "Beta"}, "7": {"stimulus": 41, "trial": 7, "rt": 1459, "response": "Alpha"}, "6": {"stimulus": 19, "trial": 6, "rt": 1067, "response": "Alpha"}, "9": {"stimulus": 60, "trial": 9, "rt": 4258, "response": "Alpha"}, "8": {"stimulus": 7, "trial": 8, "rt": 1148, "response": "Alpha"}, "78": {"stimulus": 20, "trial": 78, "rt": 833, "response": "Alpha"}, "51": {"stimulus": 55, "trial": 51, "rt": 844, "response": "Beta"}, "39": {"stimulus": 74, "trial": 39, "rt": 1004, "response": "Beta"}, "65": {"stimulus": 51, "trial": 65, "rt": 1556, "response": "Alpha"}, "76": {"stimulus": 77, "trial": 76, "rt": 691, "response": "Beta"}, "75": {"stimulus": 58, "trial": 75, "rt": 1363, "response": "Beta"}, "38": {"stimulus": 33, "trial": 38, "rt": 947, "response": "Alpha"}, "73": {"stimulus": 49, "trial": 73, "rt": 1252, "response": "Alpha"}, "72": {"stimulus": 16, "trial": 72, "rt": 523, "response": "Alpha"}, "71": {"stimulus": 1, "trial": 71, "rt": 507, "response": "Alpha"}, "70": {"stimulus": 21, "trial": 70, "rt": 859, "response": "Alpha"}, "59": {"stimulus": 63, "trial": 59, "rt": 564, "response": "Beta"}, "79": {"stimulus": 78, "trial": 79, "rt": 1027, "response": "Beta"}, "58": {"stimulus": 57, "trial": 58, "rt": 1011, "response": "Beta"}, "11": {"stimulus": 67, "trial": 11, "rt": 1027, "response": "Beta"}, "10": {"stimulus": 43, "trial": 10, "rt": 1387, "response": "Alpha"}, "13": {"stimulus": 5, "trial": 13, "rt": 683, "response": "Alpha"}, "12": {"stimulus": 25, "trial": 12, "rt": 851, "response": "Alpha"}, "15": {"stimulus": 24, "trial": 15, "rt": 939, "response": "Alpha"}, "14": {"stimulus": 47, "trial": 14, "rt": 2364, "response": "Alpha"}, "17": {"stimulus": 80, "trial": 17, "rt": 883, "response": "Beta"}, "16": {"stimulus": 32, "trial": 16, "rt": 859, "response": "Alpha"}, "19": {"stimulus": 46, "trial": 19, "rt": 3307, "response": "Beta"}, "18": {"stimulus": 35, "trial": 18, "rt": 1499, "response": "Alpha"}, "31": {"stimulus": 40, "trial": 31, "rt": 1044, "response": "Alpha"}, "30": {"stimulus": 48, "trial": 30, "rt": 1515, "response": "Alpha"}, "37": {"stimulus": 75, "trial": 37, "rt": 539, "response": "Beta"}, "36": {"stimulus": 59, "trial": 36, "rt": 1483, "response": "Beta"}, "35": {"stimulus": 36, "trial": 35, "rt": 1132, "response": "Alpha"}, "34": {"stimulus": 13, "trial": 34, "rt": 579, "response": "Alpha"}, "33": {"stimulus": 3, "trial": 33, "rt": 899, "response": "Alpha"}, "55": {"stimulus": 4, "trial": 55, "rt": 571, "response": "Alpha"}, "74": {"stimulus": 45, "trial": 74, "rt": 859, "response": "Alpha"}, "32": {"stimulus": 69, "trial": 32, "rt": 955, "response": "Beta"}, "57": {"stimulus": 18, "trial": 57, "rt": 619, "response": "Alpha"}, "50": {"stimulus": 54, "trial": 50, "rt": 1915, "response": "Beta"}}}