{"generation": {"1": {"stimulus": 0, "trial": 1, "rt": 12213}, "0": {"stimulus": 36, "trial": 0, "rt": 12854}, "3": {"stimulus": 63, "trial": 3, "rt": 4928}, "2": {"stimulus": 72, "trial": 2, "rt": 10127}}, "info": {"finish": 1488822263758, "participant": 81, "exposed": true, "lab": false, "start": 1488822085283, "counterbalance": 5, "condition": "XOR", "browser": {"platform": "Win32", "userAgent": "Mozilla/5.0 (Windows NT 10.0; Win64; x64) AppleWebKit/537.36 (KHTML, like Gecko) Chrome/56.0.2924.87 Safari/537.36"}}, "experiment": {"Paradigm": "TACL", "Stimuli": "Size-Color Squares", "Experiment": "Generating-Categories"}, "observation": {"11": {"stimulus": 70, "trial": 11, "rt": 1006}, "10": {"stimulus": 10, "trial": 10, "rt": 1074}, "1": {"stimulus": 10, "trial": 1, "rt": 1556}, "0": {"stimulus": 70, "trial": 0, "rt": 2327}, "3": {"stimulus": 80, "trial": 3, "rt": 1346}, "2": {"stimulus": 0, "trial": 2, "rt": 1434}, "5": {"stimulus": 10, "trial": 5, "rt": 998}, "4": {"stimulus": 80, "trial": 4, "rt": 1011}, "7": {"stimulus": 0, "trial": 7, "rt": 941}, "6": {"stimulus": 70, "trial": 6, "rt": 1042}, "9": {"stimulus": 0, "trial": 9, "rt": 1140}, "8": {"stimulus": 80, "trial": 8, "rt": 1741}}, "generalization": {"56": {"stimulus": 5, "trial": 56, "rt": 454, "response": "Alpha"}, "77": {"stimulus": 79, "trial": 77, "rt": 553, "response": "Alpha"}, "54": {"stimulus": 77, "trial": 54, "rt": 421, "response": "Alpha"}, "42": {"stimulus": 78, "trial": 42, "rt": 614, "response": "Alpha"}, "48": {"stimulus": 3, "trial": 48, "rt": 584, "response": "Alpha"}, "43": {"stimulus": 47, "trial": 43, "rt": 1468, "response": "Beta"}, "60": {"stimulus": 48, "trial": 60, "rt": 643, "response": "Alpha"}, "61": {"stimulus": 10, "trial": 61, "rt": 910, "response": "Beta"}, "62": {"stimulus": 63, "trial": 62, "rt": 1191, "response": "Beta"}, "63": {"stimulus": 15, "trial": 63, "rt": 747, "response": "Alpha"}, "64": {"stimulus": 18, "trial": 64, "rt": 927, "response": "Beta"}, "49": {"stimulus": 17, "trial": 49, "rt": 581, "response": "Alpha"}, "66": {"stimulus": 71, "trial": 66, "rt": 651, "response": "Alpha"}, "67": {"stimulus": 75, "trial": 67, "rt": 924, "response": "Alpha"}, "68": {"stimulus": 29, "trial": 68, "rt": 484, "response": "Alpha"}, "69": {"stimulus": 26, "trial": 69, "rt": 465, "response": "Alpha"}, "80": {"stimulus": 2, "trial": 80, "rt": 501, "response": "Alpha"}, "52": {"stimulus": 23, "trial": 52, "rt": 562, "response": "Alpha"}, "53": {"stimulus": 41, "trial": 53, "rt": 435, "response": "Alpha"}, "24": {"stimulus": 55, "trial": 24, "rt": 678, "response": "Beta"}, "25": {"stimulus": 37, "trial": 25, "rt": 510, "response": "Beta"}, "26": {"stimulus": 25, "trial": 26, "rt": 841, "response": "Alpha"}, "27": {"stimulus": 33, "trial": 27, "rt": 410, "response": "Alpha"}, "20": {"stimulus": 60, "trial": 20, "rt": 481, "response": "Alpha"}, "21": {"stimulus": 32, "trial": 21, "rt": 442, "response": "Alpha"}, "22": {"stimulus": 72, "trial": 22, "rt": 1112, "response": "Beta"}, "23": {"stimulus": 28, "trial": 23, "rt": 470, "response": "Beta"}, "46": {"stimulus": 40, "trial": 46, "rt": 1672, "response": "Alpha"}, "47": {"stimulus": 8, "trial": 47, "rt": 460, "response": "Alpha"}, "44": {"stimulus": 24, "trial": 44, "rt": 995, "response": "Alpha"}, "45": {"stimulus": 54, "trial": 45, "rt": 1660, "response": "Beta"}, "28": {"stimulus": 74, "trial": 28, "rt": 578, "response": "Alpha"}, "29": {"stimulus": 59, "trial": 29, "rt": 594, "response": "Alpha"}, "40": {"stimulus": 66, "trial": 40, "rt": 643, "response": "Alpha"}, "41": {"stimulus": 76, "trial": 41, "rt": 524, "response": "Alpha"}, "1": {"stimulus": 20, "trial": 1, "rt": 1195, "response": "Alpha"}, "0": {"stimulus": 73, "trial": 0, "rt": 2399, "response": "Beta"}, "3": {"stimulus": 27, "trial": 3, "rt": 1181, "response": "Beta"}, "2": {"stimulus": 6, "trial": 2, "rt": 528, "response": "Alpha"}, "5": {"stimulus": 51, "trial": 5, "rt": 625, "response": "Alpha"}, "4": {"stimulus": 53, "trial": 4, "rt": 525, "response": "Alpha"}, "7": {"stimulus": 14, "trial": 7, "rt": 474, "response": "Alpha"}, "6": {"stimulus": 30, "trial": 6, "rt": 457, "response": "Alpha"}, "9": {"stimulus": 21, "trial": 9, "rt": 477, "response": "Alpha"}, "8": {"stimulus": 12, "trial": 8, "rt": 435, "response": "Alpha"}, "78": {"stimulus": 35, "trial": 78, "rt": 692, "response": "Alpha"}, "51": {"stimulus": 65, "trial": 51, "rt": 451, "response": "Alpha"}, "39": {"stimulus": 38, "trial": 39, "rt": 1130, "response": "Alpha"}, "65": {"stimulus": 67, "trial": 65, "rt": 1921, "response": "Alpha"}, "76": {"stimulus": 46, "trial": 76, "rt": 430, "response": "Alpha"}, "75": {"stimulus": 61, "trial": 75, "rt": 457, "response": "Alpha"}, "38": {"stimulus": 52, "trial": 38, "rt": 495, "response": "Alpha"}, "73": {"stimulus": 34, "trial": 73, "rt": 1067, "response": "Alpha"}, "72": {"stimulus": 64, "trial": 72, "rt": 743, "response": "Beta"}, "71": {"stimulus": 11, "trial": 71, "rt": 904, "response": "Beta"}, "70": {"stimulus": 1, "trial": 70, "rt": 1107, "response": "Beta"}, "59": {"stimulus": 62, "trial": 59, "rt": 573, "response": "Alpha"}, "79": {"stimulus": 44, "trial": 79, "rt": 455, "response": "Alpha"}, "58": {"stimulus": 45, "trial": 58, "rt": 1244, "response": "Beta"}, "11": {"stimulus": 70, "trial": 11, "rt": 408, "response": "Alpha"}, "10": {"stimulus": 39, "trial": 10, "rt": 426, "response": "Alpha"}, "13": {"stimulus": 69, "trial": 13, "rt": 537, "response": "Alpha"}, "12": {"stimulus": 13, "trial": 12, "rt": 396, "response": "Alpha"}, "15": {"stimulus": 9, "trial": 15, "rt": 1002, "response": "Beta"}, "14": {"stimulus": 58, "trial": 14, "rt": 447, "response": "Alpha"}, "17": {"stimulus": 16, "trial": 17, "rt": 1161, "response": "Alpha"}, "16": {"stimulus": 19, "trial": 16, "rt": 512, "response": "Beta"}, "19": {"stimulus": 56, "trial": 19, "rt": 795, "response": "Alpha"}, "18": {"stimulus": 42, "trial": 18, "rt": 449, "response": "Alpha"}, "31": {"stimulus": 57, "trial": 31, "rt": 460, "response": "Alpha"}, "30": {"stimulus": 50, "trial": 30, "rt": 427, "response": "Alpha"}, "37": {"stimulus": 7, "trial": 37, "rt": 543, "response": "Alpha"}, "36": {"stimulus": 0, "trial": 36, "rt": 379, "response": "Alpha"}, "35": {"stimulus": 43, "trial": 35, "rt": 396, "response": "Alpha"}, "34": {"stimulus": 4, "trial": 34, "rt": 851, "response": "Alpha"}, "33": {"stimulus": 31, "trial": 33, "rt": 1024, "response": "Alpha"}, "55": {"stimulus": 49, "trial": 55, "rt": 456, "response": "Alpha"}, "74": {"stimulus": 68, "trial": 74, "rt": 458, "response": "Alpha"}, "32": {"stimulus": 36, "trial": 32, "rt": 879, "response": "Beta"}, "57": {"stimulus": 80, "trial": 57, "rt": 416, "response": "Alpha"}, "50": {"stimulus": 22, "trial": 50, "rt": 851, "response": "Alpha"}}}