{"generation": {"1": {"stimulus": 64, "trial": 1, "rt": 21952}, "0": {"stimulus": 40, "trial": 0, "rt": 12479}, "3": {"stimulus": 63, "trial": 3, "rt": 7224}, "2": {"stimulus": 72, "trial": 2, "rt": 11362}}, "info": {"finish": 1488822414314, "participant": 82, "exposed": true, "lab": false, "start": 1488822085797, "counterbalance": 5, "condition": "XOR", "browser": {"platform": "Win32", "userAgent": "Mozilla/5.0 (Windows NT 6.1; WOW64) AppleWebKit/537.36 (KHTML, like Gecko) Maxthon/5.0.2.1000 Chrome/47.0.2526.73 Safari/537.36"}}, "experiment": {"Paradigm": "TACL", "Stimuli": "Size-Color Squares", "Experiment": "Generating-Categories"}, "observation": {"11": {"stimulus": 0, "trial": 11, "rt": 3067}, "10": {"stimulus": 70, "trial": 10, "rt": 5044}, "1": {"stimulus": 80, "trial": 1, "rt": 4131}, "0": {"stimulus": 70, "trial": 0, "rt": 3819}, "3": {"stimulus": 10, "trial": 3, "rt": 3507}, "2": {"stimulus": 0, "trial": 2, "rt": 3914}, "5": {"stimulus": 10, "trial": 5, "rt": 3875}, "4": {"stimulus": 70, "trial": 4, "rt": 5563}, "7": {"stimulus": 80, "trial": 7, "rt": 5012}, "6": {"stimulus": 0, "trial": 6, "rt": 1786}, "9": {"stimulus": 10, "trial": 9, "rt": 4658}, "8": {"stimulus": 80, "trial": 8, "rt": 8066}}, "generalization": {"56": {"stimulus": 5, "trial": 56, "rt": 1099, "response": "Alpha"}, "77": {"stimulus": 25, "trial": 77, "rt": 539, "response": "Alpha"}, "54": {"stimulus": 39, "trial": 54, "rt": 1691, "response": "Beta"}, "42": {"stimulus": 40, "trial": 42, "rt": 867, "response": "Beta"}, "48": {"stimulus": 54, "trial": 48, "rt": 1203, "response": "Beta"}, "43": {"stimulus": 13, "trial": 43, "rt": 1836, "response": "Alpha"}, "60": {"stimulus": 11, "trial": 60, "rt": 2747, "response": "Alpha"}, "61": {"stimulus": 6, "trial": 61, "rt": 1034, "response": "Alpha"}, "62": {"stimulus": 76, "trial": 62, "rt": 883, "response": "Beta"}, "63": {"stimulus": 47, "trial": 63, "rt": 779, "response": "Beta"}, "64": {"stimulus": 20, "trial": 64, "rt": 1427, "response": "Alpha"}, "49": {"stimulus": 79, "trial": 49, "rt": 562, "response": "Beta"}, "66": {"stimulus": 28, "trial": 66, "rt": 1611, "response": "Beta"}, "67": {"stimulus": 16, "trial": 67, "rt": 1355, "response": "Alpha"}, "68": {"stimulus": 26, "trial": 68, "rt": 1859, "response": "Alpha"}, "69": {"stimulus": 35, "trial": 69, "rt": 475, "response": "Alpha"}, "80": {"stimulus": 68, "trial": 80, "rt": 523, "response": "Beta"}, "52": {"stimulus": 71, "trial": 52, "rt": 1147, "response": "Beta"}, "53": {"stimulus": 4, "trial": 53, "rt": 1554, "response": "Alpha"}, "24": {"stimulus": 67, "trial": 24, "rt": 4066, "response": "Beta"}, "25": {"stimulus": 74, "trial": 25, "rt": 2178, "response": "Beta"}, "26": {"stimulus": 51, "trial": 26, "rt": 2834, "response": "Beta"}, "27": {"stimulus": 29, "trial": 27, "rt": 3012, "response": "Alpha"}, "20": {"stimulus": 10, "trial": 20, "rt": 1644, "response": "Alpha"}, "21": {"stimulus": 34, "trial": 21, "rt": 1155, "response": "Alpha"}, "22": {"stimulus": 37, "trial": 22, "rt": 1299, "response": "Beta"}, "23": {"stimulus": 14, "trial": 23, "rt": 1043, "response": "Alpha"}, "46": {"stimulus": 61, "trial": 46, "rt": 938, "response": "Beta"}, "47": {"stimulus": 7, "trial": 47, "rt": 2027, "response": "Alpha"}, "44": {"stimulus": 78, "trial": 44, "rt": 1499, "response": "Beta"}, "45": {"stimulus": 36, "trial": 45, "rt": 939, "response": "Beta"}, "28": {"stimulus": 55, "trial": 28, "rt": 1139, "response": "Beta"}, "29": {"stimulus": 32, "trial": 29, "rt": 1094, "response": "Alpha"}, "40": {"stimulus": 2, "trial": 40, "rt": 1138, "response": "Alpha"}, "41": {"stimulus": 38, "trial": 41, "rt": 1355, "response": "Beta"}, "1": {"stimulus": 62, "trial": 1, "rt": 4098, "response": "Alpha"}, "0": {"stimulus": 21, "trial": 0, "rt": 5705, "response": "Alpha"}, "3": {"stimulus": 18, "trial": 3, "rt": 1210, "response": "Alpha"}, "2": {"stimulus": 56, "trial": 2, "rt": 2515, "response": "Beta"}, "5": {"stimulus": 31, "trial": 5, "rt": 1043, "response": "Alpha"}, "4": {"stimulus": 23, "trial": 4, "rt": 2170, "response": "Alpha"}, "7": {"stimulus": 15, "trial": 7, "rt": 3850, "response": "Beta"}, "6": {"stimulus": 65, "trial": 6, "rt": 2530, "response": "Beta"}, "9": {"stimulus": 64, "trial": 9, "rt": 796, "response": "Beta"}, "8": {"stimulus": 73, "trial": 8, "rt": 2563, "response": "Beta"}, "78": {"stimulus": 49, "trial": 78, "rt": 1179, "response": "Beta"}, "51": {"stimulus": 3, "trial": 51, "rt": 978, "response": "Alpha"}, "39": {"stimulus": 50, "trial": 39, "rt": 1290, "response": "Beta"}, "65": {"stimulus": 22, "trial": 65, "rt": 651, "response": "Alpha"}, "76": {"stimulus": 12, "trial": 76, "rt": 1066, "response": "Alpha"}, "75": {"stimulus": 48, "trial": 75, "rt": 850, "response": "Beta"}, "38": {"stimulus": 59, "trial": 38, "rt": 2083, "response": "Alpha"}, "73": {"stimulus": 44, "trial": 73, "rt": 7875, "response": "Alpha"}, "72": {"stimulus": 43, "trial": 72, "rt": 474, "response": "Alpha"}, "71": {"stimulus": 33, "trial": 71, "rt": 1323, "response": "Alpha"}, "70": {"stimulus": 77, "trial": 70, "rt": 1706, "response": "Alpha"}, "59": {"stimulus": 17, "trial": 59, "rt": 947, "response": "Alpha"}, "79": {"stimulus": 41, "trial": 79, "rt": 410, "response": "Beta"}, "58": {"stimulus": 0, "trial": 58, "rt": 715, "response": "Alpha"}, "11": {"stimulus": 66, "trial": 11, "rt": 1155, "response": "Beta"}, "10": {"stimulus": 57, "trial": 10, "rt": 1059, "response": "Beta"}, "13": {"stimulus": 42, "trial": 13, "rt": 955, "response": "Alpha"}, "12": {"stimulus": 53, "trial": 12, "rt": 899, "response": "Alpha"}, "15": {"stimulus": 69, "trial": 15, "rt": 635, "response": "Alpha"}, "14": {"stimulus": 52, "trial": 14, "rt": 827, "response": "Alpha"}, "17": {"stimulus": 63, "trial": 17, "rt": 1106, "response": "Beta"}, "16": {"stimulus": 60, "trial": 16, "rt": 538, "response": "Alpha"}, "19": {"stimulus": 46, "trial": 19, "rt": 1491, "response": "Beta"}, "18": {"stimulus": 9, "trial": 18, "rt": 1642, "response": "Alpha"}, "31": {"stimulus": 8, "trial": 31, "rt": 3266, "response": "Alpha"}, "30": {"stimulus": 70, "trial": 30, "rt": 1751, "response": "Alpha"}, "37": {"stimulus": 75, "trial": 37, "rt": 811, "response": "Beta"}, "36": {"stimulus": 72, "trial": 36, "rt": 1819, "response": "Beta"}, "35": {"stimulus": 24, "trial": 35, "rt": 715, "response": "Alpha"}, "34": {"stimulus": 1, "trial": 34, "rt": 2556, "response": "Alpha"}, "33": {"stimulus": 80, "trial": 33, "rt": 2067, "response": "Alpha"}, "55": {"stimulus": 30, "trial": 55, "rt": 475, "response": "Beta"}, "74": {"stimulus": 58, "trial": 74, "rt": 3635, "response": "Beta"}, "32": {"stimulus": 19, "trial": 32, "rt": 1346, "response": "Beta"}, "57": {"stimulus": 27, "trial": 57, "rt": 579, "response": "Alpha"}, "50": {"stimulus": 45, "trial": 50, "rt": 1299, "response": "Beta"}}}