{"generation": {"1": {"stimulus": 49, "trial": 1, "rt": 11570}, "0": {"stimulus": 40, "trial": 0, "rt": 17186}, "3": {"stimulus": 41, "trial": 3, "rt": 5163}, "2": {"stimulus": 31, "trial": 2, "rt": 3378}}, "info": {"finish": 1488822650964, "participant": 83, "exposed": true, "lab": false, "start": 1488822093947, "counterbalance": 1, "condition": "XOR", "browser": {"platform": "Win32", "userAgent": "Mozilla/5.0 (Windows NT 6.1; Win64; x64) AppleWebKit/537.36 (KHTML, like Gecko) Chrome/56.0.2924.87 Safari/537.36"}}, "experiment": {"Paradigm": "TACL", "Stimuli": "Size-Color Squares", "Experiment": "Generating-Categories"}, "observation": {"11": {"stimulus": 70, "trial": 11, "rt": 691}, "10": {"stimulus": 10, "trial": 10, "rt": 1283}, "1": {"stimulus": 70, "trial": 1, "rt": 1243}, "0": {"stimulus": 10, "trial": 0, "rt": 2932}, "3": {"stimulus": 0, "trial": 3, "rt": 2283}, "2": {"stimulus": 80, "trial": 2, "rt": 1715}, "5": {"stimulus": 70, "trial": 5, "rt": 1131}, "4": {"stimulus": 10, "trial": 4, "rt": 3427}, "7": {"stimulus": 0, "trial": 7, "rt": 1123}, "6": {"stimulus": 80, "trial": 6, "rt": 1259}, "9": {"stimulus": 0, "trial": 9, "rt": 1723}, "8": {"stimulus": 80, "trial": 8, "rt": 2035}}, "generalization": {"56": {"stimulus": 53, "trial": 56, "rt": 539, "response": "Alpha"}, "77": {"stimulus": 32, "trial": 77, "rt": 483, "response": "Alpha"}, "54": {"stimulus": 48, "trial": 54, "rt": 1379, "response": "Alpha"}, "42": {"stimulus": 80, "trial": 42, "rt": 603, "response": "Alpha"}, "48": {"stimulus": 10, "trial": 48, "rt": 1627, "response": "Alpha"}, "43": {"stimulus": 77, "trial": 43, "rt": 483, "response": "Alpha"}, "60": {"stimulus": 66, "trial": 60, "rt": 562, "response": "Alpha"}, "61": {"stimulus": 50, "trial": 61, "rt": 499, "response": "Alpha"}, "62": {"stimulus": 39, "trial": 62, "rt": 778, "response": "Alpha"}, "63": {"stimulus": 72, "trial": 63, "rt": 559, "response": "Alpha"}, "64": {"stimulus": 13, "trial": 64, "rt": 836, "response": "Alpha"}, "49": {"stimulus": 45, "trial": 49, "rt": 612, "response": "Alpha"}, "66": {"stimulus": 57, "trial": 66, "rt": 609, "response": "Alpha"}, "67": {"stimulus": 52, "trial": 67, "rt": 477, "response": "Alpha"}, "68": {"stimulus": 40, "trial": 68, "rt": 483, "response": "Alpha"}, "69": {"stimulus": 58, "trial": 69, "rt": 640, "response": "Alpha"}, "80": {"stimulus": 19, "trial": 80, "rt": 955, "response": "Alpha"}, "52": {"stimulus": 68, "trial": 52, "rt": 595, "response": "Alpha"}, "53": {"stimulus": 28, "trial": 53, "rt": 995, "response": "Beta"}, "24": {"stimulus": 14, "trial": 24, "rt": 1523, "response": "Alpha"}, "25": {"stimulus": 44, "trial": 25, "rt": 466, "response": "Alpha"}, "26": {"stimulus": 8, "trial": 26, "rt": 579, "response": "Alpha"}, "27": {"stimulus": 33, "trial": 27, "rt": 611, "response": "Alpha"}, "20": {"stimulus": 65, "trial": 20, "rt": 939, "response": "Alpha"}, "21": {"stimulus": 34, "trial": 21, "rt": 731, "response": "Alpha"}, "22": {"stimulus": 43, "trial": 22, "rt": 675, "response": "Alpha"}, "23": {"stimulus": 63, "trial": 23, "rt": 779, "response": "Alpha"}, "46": {"stimulus": 70, "trial": 46, "rt": 629, "response": "Alpha"}, "47": {"stimulus": 24, "trial": 47, "rt": 667, "response": "Alpha"}, "44": {"stimulus": 6, "trial": 44, "rt": 691, "response": "Alpha"}, "45": {"stimulus": 26, "trial": 45, "rt": 475, "response": "Alpha"}, "28": {"stimulus": 27, "trial": 28, "rt": 1323, "response": "Alpha"}, "29": {"stimulus": 67, "trial": 29, "rt": 562, "response": "Alpha"}, "40": {"stimulus": 76, "trial": 40, "rt": 546, "response": "Alpha"}, "41": {"stimulus": 2, "trial": 41, "rt": 1506, "response": "Alpha"}, "1": {"stimulus": 79, "trial": 1, "rt": 650, "response": "Alpha"}, "0": {"stimulus": 16, "trial": 0, "rt": 5505, "response": "Alpha"}, "3": {"stimulus": 0, "trial": 3, "rt": 1107, "response": "Alpha"}, "2": {"stimulus": 15, "trial": 2, "rt": 1035, "response": "Alpha"}, "5": {"stimulus": 7, "trial": 5, "rt": 599, "response": "Alpha"}, "4": {"stimulus": 25, "trial": 4, "rt": 1459, "response": "Alpha"}, "7": {"stimulus": 54, "trial": 7, "rt": 719, "response": "Alpha"}, "6": {"stimulus": 17, "trial": 6, "rt": 524, "response": "Alpha"}, "9": {"stimulus": 71, "trial": 9, "rt": 809, "response": "Alpha"}, "8": {"stimulus": 29, "trial": 8, "rt": 1587, "response": "Beta"}, "78": {"stimulus": 74, "trial": 78, "rt": 659, "response": "Alpha"}, "51": {"stimulus": 31, "trial": 51, "rt": 1748, "response": "Beta"}, "39": {"stimulus": 55, "trial": 39, "rt": 650, "response": "Alpha"}, "65": {"stimulus": 35, "trial": 65, "rt": 515, "response": "Alpha"}, "76": {"stimulus": 60, "trial": 76, "rt": 490, "response": "Alpha"}, "75": {"stimulus": 12, "trial": 75, "rt": 747, "response": "Alpha"}, "38": {"stimulus": 61, "trial": 38, "rt": 531, "response": "Alpha"}, "73": {"stimulus": 47, "trial": 73, "rt": 427, "response": "Alpha"}, "72": {"stimulus": 49, "trial": 72, "rt": 436, "response": "Alpha"}, "71": {"stimulus": 75, "trial": 71, "rt": 387, "response": "Alpha"}, "70": {"stimulus": 59, "trial": 70, "rt": 470, "response": "Alpha"}, "59": {"stimulus": 64, "trial": 59, "rt": 580, "response": "Alpha"}, "79": {"stimulus": 22, "trial": 79, "rt": 498, "response": "Alpha"}, "58": {"stimulus": 1, "trial": 58, "rt": 1323, "response": "Alpha"}, "11": {"stimulus": 46, "trial": 11, "rt": 867, "response": "Alpha"}, "10": {"stimulus": 56, "trial": 10, "rt": 2618, "response": "Alpha"}, "13": {"stimulus": 20, "trial": 13, "rt": 1859, "response": "Beta"}, "12": {"stimulus": 51, "trial": 12, "rt": 507, "response": "Alpha"}, "15": {"stimulus": 36, "trial": 15, "rt": 1708, "response": "Alpha"}, "14": {"stimulus": 11, "trial": 14, "rt": 1477, "response": "Beta"}, "17": {"stimulus": 42, "trial": 17, "rt": 1163, "response": "Alpha"}, "16": {"stimulus": 41, "trial": 16, "rt": 1722, "response": "Alpha"}, "19": {"stimulus": 62, "trial": 19, "rt": 660, "response": "Alpha"}, "18": {"stimulus": 69, "trial": 18, "rt": 954, "response": "Alpha"}, "31": {"stimulus": 5, "trial": 31, "rt": 587, "response": "Alpha"}, "30": {"stimulus": 37, "trial": 30, "rt": 1170, "response": "Alpha"}, "37": {"stimulus": 38, "trial": 37, "rt": 451, "response": "Alpha"}, "36": {"stimulus": 73, "trial": 36, "rt": 619, "response": "Alpha"}, "35": {"stimulus": 30, "trial": 35, "rt": 1507, "response": "Beta"}, "34": {"stimulus": 4, "trial": 34, "rt": 507, "response": "Alpha"}, "33": {"stimulus": 23, "trial": 33, "rt": 683, "response": "Alpha"}, "55": {"stimulus": 78, "trial": 55, "rt": 459, "response": "Alpha"}, "74": {"stimulus": 9, "trial": 74, "rt": 755, "response": "Alpha"}, "32": {"stimulus": 21, "trial": 32, "rt": 2777, "response": "Beta"}, "57": {"stimulus": 3, "trial": 57, "rt": 699, "response": "Alpha"}, "50": {"stimulus": 18, "trial": 50, "rt": 2345, "response": "Alpha"}}}