{"generation": {"1": {"stimulus": 25, "trial": 1, "rt": 10837}, "0": {"stimulus": 17, "trial": 0, "rt": 13970}, "3": {"stimulus": 64, "trial": 3, "rt": 9535}, "2": {"stimulus": 63, "trial": 2, "rt": 5769}}, "info": {"participant": 84, "exposed": true, "lab": false, "start": 1488822104793, "counterbalance": 5, "condition": "XOR", "browser": {"platform": "Win32", "userAgent": "Mozilla/5.0 (Windows NT 10.0; Win64; x64) AppleWebKit/537.36 (KHTML, like Gecko) Chrome/56.0.2924.87 Safari/537.36"}}, "experiment": {"Paradigm": "TACL", "Stimuli": "Size-Color Squares", "Experiment": "Generating-Categories"}, "observation": {"11": {"stimulus": 70, "trial": 11, "rt": 1442}, "10": {"stimulus": 10, "trial": 10, "rt": 1819}, "1": {"stimulus": 80, "trial": 1, "rt": 3428}, "0": {"stimulus": 0, "trial": 0, "rt": 4795}, "3": {"stimulus": 70, "trial": 3, "rt": 2416}, "2": {"stimulus": 10, "trial": 2, "rt": 2397}, "5": {"stimulus": 10, "trial": 5, "rt": 2293}, "4": {"stimulus": 0, "trial": 4, "rt": 2470}, "7": {"stimulus": 80, "trial": 7, "rt": 2978}, "6": {"stimulus": 70, "trial": 6, "rt": 2143}, "9": {"stimulus": 80, "trial": 9, "rt": 1646}, "8": {"stimulus": 0, "trial": 8, "rt": 2077}}, "generalization": {"56": {"stimulus": 41, "trial": 56, "rt": 849, "response": "Alpha"}, "77": {"stimulus": 22, "trial": 77, "rt": 2409, "response": "Alpha"}, "54": {"stimulus": 6, "trial": 54, "rt": 930, "response": "Beta"}, "42": {"stimulus": 49, "trial": 42, "rt": 1163, "response": "Alpha"}, "48": {"stimulus": 74, "trial": 48, "rt": 1304, "response": "Beta"}, "43": {"stimulus": 19, "trial": 43, "rt": 2173, "response": "Alpha"}, "60": {"stimulus": 25, "trial": 60, "rt": 1465, "response": "Beta"}, "61": {"stimulus": 69, "trial": 61, "rt": 981, "response": "Alpha"}, "62": {"stimulus": 59, "trial": 62, "rt": 915, "response": "Alpha"}, "63": {"stimulus": 75, "trial": 63, "rt": 1272, "response": "Beta"}, "64": {"stimulus": 68, "trial": 64, "rt": 1112, "response": "Alpha"}, "49": {"stimulus": 15, "trial": 49, "rt": 1377, "response": "Alpha"}, "66": {"stimulus": 77, "trial": 66, "rt": 905, "response": "Alpha"}, "67": {"stimulus": 24, "trial": 67, "rt": 901, "response": "Beta"}, "68": {"stimulus": 38, "trial": 68, "rt": 2409, "response": "Beta"}, "69": {"stimulus": 13, "trial": 69, "rt": 3035, "response": "Alpha"}, "80": {"stimulus": 57, "trial": 80, "rt": 655, "response": "Beta"}, "52": {"stimulus": 3, "trial": 52, "rt": 1702, "response": "Alpha"}, "53": {"stimulus": 51, "trial": 53, "rt": 1383, "response": "Alpha"}, "24": {"stimulus": 73, "trial": 24, "rt": 774, "response": "Beta"}, "25": {"stimulus": 78, "trial": 25, "rt": 951, "response": "Alpha"}, "26": {"stimulus": 30, "trial": 26, "rt": 1393, "response": "Beta"}, "27": {"stimulus": 43, "trial": 27, "rt": 1721, "response": "Alpha"}, "20": {"stimulus": 65, "trial": 20, "rt": 653, "response": "Beta"}, "21": {"stimulus": 80, "trial": 21, "rt": 1007, "response": "Alpha"}, "22": {"stimulus": 72, "trial": 22, "rt": 764, "response": "Beta"}, "23": {"stimulus": 18, "trial": 23, "rt": 891, "response": "Alpha"}, "46": {"stimulus": 16, "trial": 46, "rt": 2191, "response": "Beta"}, "47": {"stimulus": 8, "trial": 47, "rt": 681, "response": "Beta"}, "44": {"stimulus": 53, "trial": 44, "rt": 979, "response": "Alpha"}, "45": {"stimulus": 27, "trial": 45, "rt": 896, "response": "Beta"}, "28": {"stimulus": 11, "trial": 28, "rt": 2001, "response": "Alpha"}, "29": {"stimulus": 32, "trial": 29, "rt": 3624, "response": "Beta"}, "40": {"stimulus": 45, "trial": 40, "rt": 1295, "response": "Beta"}, "41": {"stimulus": 29, "trial": 41, "rt": 1189, "response": "Beta"}, "1": {"stimulus": 52, "trial": 1, "rt": 1327, "response": "Alpha"}, "0": {"stimulus": 4, "trial": 0, "rt": 2399, "response": "Beta"}, "3": {"stimulus": 54, "trial": 3, "rt": 770, "response": "Beta"}, "2": {"stimulus": 47, "trial": 2, "rt": 960, "response": "Beta"}, "5": {"stimulus": 26, "trial": 5, "rt": 2280, "response": "Beta"}, "4": {"stimulus": 50, "trial": 4, "rt": 3090, "response": "Beta"}, "7": {"stimulus": 58, "trial": 7, "rt": 887, "response": "Beta"}, "6": {"stimulus": 79, "trial": 6, "rt": 798, "response": "Alpha"}, "9": {"stimulus": 62, "trial": 9, "rt": 965, "response": "Alpha"}, "8": {"stimulus": 44, "trial": 8, "rt": 951, "response": "Alpha"}, "78": {"stimulus": 35, "trial": 78, "rt": 2732, "response": "Beta"}, "51": {"stimulus": 20, "trial": 51, "rt": 2670, "response": "Alpha"}, "39": {"stimulus": 10, "trial": 39, "rt": 791, "response": "Alpha"}, "65": {"stimulus": 9, "trial": 65, "rt": 1284, "response": "Alpha"}, "76": {"stimulus": 21, "trial": 76, "rt": 1497, "response": "Alpha"}, "75": {"stimulus": 34, "trial": 75, "rt": 1159, "response": "Beta"}, "38": {"stimulus": 7, "trial": 38, "rt": 998, "response": "Beta"}, "73": {"stimulus": 37, "trial": 73, "rt": 1108, "response": "Beta"}, "72": {"stimulus": 23, "trial": 72, "rt": 3631, "response": "Alpha"}, "71": {"stimulus": 28, "trial": 71, "rt": 2604, "response": "Beta"}, "70": {"stimulus": 31, "trial": 70, "rt": 6822, "response": "Beta"}, "59": {"stimulus": 12, "trial": 59, "rt": 2429, "response": "Beta"}, "79": {"stimulus": 48, "trial": 79, "rt": 1506, "response": "Beta"}, "58": {"stimulus": 67, "trial": 58, "rt": 2581, "response": "Alpha"}, "11": {"stimulus": 56, "trial": 11, "rt": 775, "response": "Beta"}, "10": {"stimulus": 63, "trial": 10, "rt": 1139, "response": "Beta"}, "13": {"stimulus": 42, "trial": 13, "rt": 1038, "response": "Alpha"}, "12": {"stimulus": 64, "trial": 12, "rt": 805, "response": "Beta"}, "15": {"stimulus": 76, "trial": 15, "rt": 748, "response": "Beta"}, "14": {"stimulus": 71, "trial": 14, "rt": 709, "response": "Alpha"}, "17": {"stimulus": 1, "trial": 17, "rt": 709, "response": "Alpha"}, "16": {"stimulus": 2, "trial": 16, "rt": 1707, "response": "Alpha"}, "19": {"stimulus": 46, "trial": 19, "rt": 1649, "response": "Beta"}, "18": {"stimulus": 17, "trial": 18, "rt": 864, "response": "Beta"}, "31": {"stimulus": 5, "trial": 31, "rt": 729, "response": "Beta"}, "30": {"stimulus": 14, "trial": 30, "rt": 996, "response": "Beta"}, "37": {"stimulus": 70, "trial": 37, "rt": 925, "response": "Alpha"}, "36": {"stimulus": 40, "trial": 36, "rt": 1996, "response": "Beta"}, "35": {"stimulus": 66, "trial": 35, "rt": 752, "response": "Beta"}, "34": {"stimulus": 55, "trial": 34, "rt": 755, "response": "Beta"}, "33": {"stimulus": 39, "trial": 33, "rt": 2375, "response": "Beta"}, "55": {"stimulus": 60, "trial": 55, "rt": 933, "response": "Alpha"}, "74": {"stimulus": 61, "trial": 74, "rt": 835, "response": "Alpha"}, "32": {"stimulus": 0, "trial": 32, "rt": 811, "response": "Alpha"}, "57": {"stimulus": 36, "trial": 57, "rt": 848, "response": "Beta"}, "50": {"stimulus": 33, "trial": 50, "rt": 1011, "response": "Beta"}}}11, "response": "Beta"}}}