{"generation": {"1": {"stimulus": 78, "trial": 1, "rt": 11868}, "0": {"stimulus": 72, "trial": 0, "rt": 22411}, "3": {"stimulus": 74, "trial": 3, "rt": 5673}, "2": {"stimulus": 80, "trial": 2, "rt": 5445}}, "info": {"finish": 1488822339547, "participant": 85, "exposed": true, "lab": false, "start": 1488822105060, "counterbalance": 2, "condition": "Row", "browser": {"platform": "Win32", "userAgent": "Mozilla/5.0 (Windows NT 10.0; Win64; x64) AppleWebKit/537.36 (KHTML, like Gecko) Chrome/51.0.2704.79 Safari/537.36 Edge/14.14393"}}, "experiment": {"Paradigm": "TACL", "Stimuli": "Size-Color Squares", "Experiment": "Generating-Categories"}, "observation": {"11": {"stimulus": 16, "trial": 11, "rt": 1372}, "10": {"stimulus": 12, "trial": 10, "rt": 1488}, "1": {"stimulus": 12, "trial": 1, "rt": 5296}, "0": {"stimulus": 14, "trial": 0, "rt": 16645}, "3": {"stimulus": 10, "trial": 3, "rt": 1805}, "2": {"stimulus": 16, "trial": 2, "rt": 5254}, "5": {"stimulus": 12, "trial": 5, "rt": 1795}, "4": {"stimulus": 16, "trial": 4, "rt": 1784}, "7": {"stimulus": 14, "trial": 7, "rt": 1266}, "6": {"stimulus": 10, "trial": 6, "rt": 1320}, "9": {"stimulus": 14, "trial": 9, "rt": 1123}, "8": {"stimulus": 10, "trial": 8, "rt": 1533}}, "generalization": {"56": {"stimulus": 75, "trial": 56, "rt": 485, "response": "Beta"}, "77": {"stimulus": 64, "trial": 77, "rt": 378, "response": "Beta"}, "54": {"stimulus": 79, "trial": 54, "rt": 871, "response": "Beta"}, "42": {"stimulus": 80, "trial": 42, "rt": 471, "response": "Beta"}, "48": {"stimulus": 50, "trial": 48, "rt": 406, "response": "Beta"}, "43": {"stimulus": 51, "trial": 43, "rt": 475, "response": "Beta"}, "60": {"stimulus": 22, "trial": 60, "rt": 763, "response": "Beta"}, "61": {"stimulus": 68, "trial": 61, "rt": 482, "response": "Beta"}, "62": {"stimulus": 1, "trial": 62, "rt": 958, "response": "Alpha"}, "63": {"stimulus": 39, "trial": 63, "rt": 860, "response": "Beta"}, "64": {"stimulus": 76, "trial": 64, "rt": 455, "response": "Beta"}, "49": {"stimulus": 77, "trial": 49, "rt": 682, "response": "Beta"}, "66": {"stimulus": 73, "trial": 66, "rt": 397, "response": "Beta"}, "67": {"stimulus": 40, "trial": 67, "rt": 585, "response": "Beta"}, "68": {"stimulus": 25, "trial": 68, "rt": 541, "response": "Beta"}, "69": {"stimulus": 44, "trial": 69, "rt": 523, "response": "Beta"}, "80": {"stimulus": 4, "trial": 80, "rt": 1539, "response": "Alpha"}, "52": {"stimulus": 57, "trial": 52, "rt": 1571, "response": "Beta"}, "53": {"stimulus": 17, "trial": 53, "rt": 1153, "response": "Alpha"}, "24": {"stimulus": 33, "trial": 24, "rt": 1169, "response": "Beta"}, "25": {"stimulus": 56, "trial": 25, "rt": 564, "response": "Beta"}, "26": {"stimulus": 27, "trial": 26, "rt": 606, "response": "Beta"}, "27": {"stimulus": 59, "trial": 27, "rt": 614, "response": "Beta"}, "20": {"stimulus": 11, "trial": 20, "rt": 609, "response": "Alpha"}, "21": {"stimulus": 78, "trial": 21, "rt": 869, "response": "Beta"}, "22": {"stimulus": 10, "trial": 22, "rt": 1689, "response": "Alpha"}, "23": {"stimulus": 14, "trial": 23, "rt": 600, "response": "Alpha"}, "46": {"stimulus": 48, "trial": 46, "rt": 524, "response": "Beta"}, "47": {"stimulus": 55, "trial": 47, "rt": 399, "response": "Beta"}, "44": {"stimulus": 31, "trial": 44, "rt": 383, "response": "Beta"}, "45": {"stimulus": 34, "trial": 45, "rt": 391, "response": "Beta"}, "28": {"stimulus": 19, "trial": 28, "rt": 643, "response": "Beta"}, "29": {"stimulus": 61, "trial": 29, "rt": 502, "response": "Beta"}, "40": {"stimulus": 58, "trial": 40, "rt": 801, "response": "Beta"}, "41": {"stimulus": 69, "trial": 41, "rt": 494, "response": "Beta"}, "1": {"stimulus": 6, "trial": 1, "rt": 1052, "response": "Alpha"}, "0": {"stimulus": 47, "trial": 0, "rt": 1506, "response": "Beta"}, "3": {"stimulus": 21, "trial": 3, "rt": 1492, "response": "Beta"}, "2": {"stimulus": 0, "trial": 2, "rt": 757, "response": "Beta"}, "5": {"stimulus": 7, "trial": 5, "rt": 1216, "response": "Alpha"}, "4": {"stimulus": 15, "trial": 4, "rt": 1879, "response": "Alpha"}, "7": {"stimulus": 3, "trial": 7, "rt": 1254, "response": "Alpha"}, "6": {"stimulus": 70, "trial": 6, "rt": 1282, "response": "Beta"}, "9": {"stimulus": 41, "trial": 9, "rt": 1151, "response": "Beta"}, "8": {"stimulus": 62, "trial": 8, "rt": 918, "response": "Beta"}, "78": {"stimulus": 9, "trial": 78, "rt": 850, "response": "Beta"}, "51": {"stimulus": 2, "trial": 51, "rt": 2067, "response": "Alpha"}, "39": {"stimulus": 49, "trial": 39, "rt": 478, "response": "Beta"}, "65": {"stimulus": 66, "trial": 65, "rt": 391, "response": "Beta"}, "76": {"stimulus": 32, "trial": 76, "rt": 544, "response": "Beta"}, "75": {"stimulus": 71, "trial": 75, "rt": 401, "response": "Beta"}, "38": {"stimulus": 28, "trial": 38, "rt": 524, "response": "Beta"}, "73": {"stimulus": 38, "trial": 73, "rt": 469, "response": "Beta"}, "72": {"stimulus": 23, "trial": 72, "rt": 508, "response": "Beta"}, "71": {"stimulus": 36, "trial": 71, "rt": 781, "response": "Beta"}, "70": {"stimulus": 12, "trial": 70, "rt": 1129, "response": "Alpha"}, "59": {"stimulus": 45, "trial": 59, "rt": 510, "response": "Beta"}, "79": {"stimulus": 30, "trial": 79, "rt": 462, "response": "Beta"}, "58": {"stimulus": 54, "trial": 58, "rt": 911, "response": "Beta"}, "11": {"stimulus": 5, "trial": 11, "rt": 1115, "response": "Alpha"}, "10": {"stimulus": 35, "trial": 10, "rt": 834, "response": "Beta"}, "13": {"stimulus": 72, "trial": 13, "rt": 1233, "response": "Beta"}, "12": {"stimulus": 16, "trial": 12, "rt": 880, "response": "Alpha"}, "15": {"stimulus": 37, "trial": 15, "rt": 658, "response": "Beta"}, "14": {"stimulus": 43, "trial": 14, "rt": 915, "response": "Beta"}, "17": {"stimulus": 20, "trial": 17, "rt": 1404, "response": "Beta"}, "16": {"stimulus": 67, "trial": 16, "rt": 789, "response": "Beta"}, "19": {"stimulus": 13, "trial": 19, "rt": 3067, "response": "Alpha"}, "18": {"stimulus": 53, "trial": 18, "rt": 668, "response": "Beta"}, "31": {"stimulus": 60, "trial": 31, "rt": 425, "response": "Beta"}, "30": {"stimulus": 24, "trial": 30, "rt": 746, "response": "Beta"}, "37": {"stimulus": 18, "trial": 37, "rt": 834, "response": "Beta"}, "36": {"stimulus": 74, "trial": 36, "rt": 548, "response": "Beta"}, "35": {"stimulus": 65, "trial": 35, "rt": 856, "response": "Beta"}, "34": {"stimulus": 8, "trial": 34, "rt": 1896, "response": "Alpha"}, "33": {"stimulus": 52, "trial": 33, "rt": 461, "response": "Beta"}, "55": {"stimulus": 29, "trial": 55, "rt": 645, "response": "Beta"}, "74": {"stimulus": 26, "trial": 74, "rt": 772, "response": "Beta"}, "32": {"stimulus": 42, "trial": 32, "rt": 499, "response": "Beta"}, "57": {"stimulus": 46, "trial": 57, "rt": 496, "response": "Beta"}, "50": {"stimulus": 63, "trial": 50, "rt": 471, "response": "Beta"}}}