{"generation": {"1": {"stimulus": 47, "trial": 1, "rt": 8201}, "0": {"stimulus": 70, "trial": 0, "rt": 16534}, "3": {"stimulus": 53, "trial": 3, "rt": 6176}, "2": {"stimulus": 45, "trial": 2, "rt": 8643}}, "info": {"finish": 1488822394115, "participant": 86, "exposed": true, "lab": false, "start": 1488822119100, "counterbalance": 3, "condition": "Row", "browser": {"platform": "Win32", "userAgent": "Mozilla/5.0 (Windows NT 10.0; WOW64) AppleWebKit/537.36 (KHTML, like Gecko) Chrome/56.0.2924.87 Safari/537.36"}}, "experiment": {"Paradigm": "TACL", "Stimuli": "Size-Color Squares", "Experiment": "Generating-Categories"}, "observation": {"11": {"stimulus": 12, "trial": 11, "rt": 1031}, "10": {"stimulus": 14, "trial": 10, "rt": 1337}, "1": {"stimulus": 10, "trial": 1, "rt": 4647}, "0": {"stimulus": 12, "trial": 0, "rt": 4445}, "3": {"stimulus": 16, "trial": 3, "rt": 1870}, "2": {"stimulus": 14, "trial": 2, "rt": 1902}, "5": {"stimulus": 10, "trial": 5, "rt": 2432}, "4": {"stimulus": 14, "trial": 4, "rt": 2180}, "7": {"stimulus": 12, "trial": 7, "rt": 2622}, "6": {"stimulus": 16, "trial": 6, "rt": 1600}, "9": {"stimulus": 10, "trial": 9, "rt": 1680}, "8": {"stimulus": 16, "trial": 8, "rt": 1017}}, "generalization": {"56": {"stimulus": 40, "trial": 56, "rt": 1833, "response": "Alpha"}, "77": {"stimulus": 30, "trial": 77, "rt": 5186, "response": "Alpha"}, "54": {"stimulus": 10, "trial": 54, "rt": 987, "response": "Alpha"}, "42": {"stimulus": 70, "trial": 42, "rt": 1035, "response": "Beta"}, "48": {"stimulus": 17, "trial": 48, "rt": 985, "response": "Alpha"}, "43": {"stimulus": 26, "trial": 43, "rt": 1597, "response": "Alpha"}, "60": {"stimulus": 51, "trial": 60, "rt": 656, "response": "Beta"}, "61": {"stimulus": 53, "trial": 61, "rt": 640, "response": "Beta"}, "62": {"stimulus": 59, "trial": 62, "rt": 698, "response": "Beta"}, "63": {"stimulus": 21, "trial": 63, "rt": 1244, "response": "Alpha"}, "64": {"stimulus": 71, "trial": 64, "rt": 1066, "response": "Beta"}, "49": {"stimulus": 20, "trial": 49, "rt": 1196, "response": "Alpha"}, "66": {"stimulus": 48, "trial": 66, "rt": 952, "response": "Beta"}, "67": {"stimulus": 43, "trial": 67, "rt": 1437, "response": "Beta"}, "68": {"stimulus": 56, "trial": 68, "rt": 1706, "response": "Beta"}, "69": {"stimulus": 8, "trial": 69, "rt": 975, "response": "Alpha"}, "80": {"stimulus": 24, "trial": 80, "rt": 1215, "response": "Alpha"}, "52": {"stimulus": 37, "trial": 52, "rt": 2398, "response": "Alpha"}, "53": {"stimulus": 57, "trial": 53, "rt": 963, "response": "Beta"}, "24": {"stimulus": 23, "trial": 24, "rt": 1102, "response": "Alpha"}, "25": {"stimulus": 69, "trial": 25, "rt": 854, "response": "Beta"}, "26": {"stimulus": 12, "trial": 26, "rt": 1266, "response": "Alpha"}, "27": {"stimulus": 16, "trial": 27, "rt": 657, "response": "Alpha"}, "20": {"stimulus": 14, "trial": 20, "rt": 1505, "response": "Alpha"}, "21": {"stimulus": 46, "trial": 21, "rt": 1516, "response": "Beta"}, "22": {"stimulus": 34, "trial": 22, "rt": 1230, "response": "Alpha"}, "23": {"stimulus": 67, "trial": 23, "rt": 984, "response": "Beta"}, "46": {"stimulus": 31, "trial": 46, "rt": 1159, "response": "Alpha"}, "47": {"stimulus": 45, "trial": 47, "rt": 1276, "response": "Beta"}, "44": {"stimulus": 72, "trial": 44, "rt": 901, "response": "Beta"}, "45": {"stimulus": 35, "trial": 45, "rt": 993, "response": "Alpha"}, "28": {"stimulus": 66, "trial": 28, "rt": 995, "response": "Beta"}, "29": {"stimulus": 3, "trial": 29, "rt": 1063, "response": "Alpha"}, "40": {"stimulus": 38, "trial": 40, "rt": 5338, "response": "Beta"}, "41": {"stimulus": 5, "trial": 41, "rt": 1023, "response": "Alpha"}, "1": {"stimulus": 68, "trial": 1, "rt": 1473, "response": "Beta"}, "0": {"stimulus": 76, "trial": 0, "rt": 2836, "response": "Beta"}, "3": {"stimulus": 73, "trial": 3, "rt": 1478, "response": "Beta"}, "2": {"stimulus": 50, "trial": 2, "rt": 1304, "response": "Beta"}, "5": {"stimulus": 36, "trial": 5, "rt": 1080, "response": "Alpha"}, "4": {"stimulus": 29, "trial": 4, "rt": 1320, "response": "Alpha"}, "7": {"stimulus": 6, "trial": 7, "rt": 1304, "response": "Alpha"}, "6": {"stimulus": 32, "trial": 6, "rt": 1078, "response": "Alpha"}, "9": {"stimulus": 55, "trial": 9, "rt": 727, "response": "Beta"}, "8": {"stimulus": 62, "trial": 8, "rt": 1422, "response": "Beta"}, "78": {"stimulus": 2, "trial": 78, "rt": 854, "response": "Alpha"}, "51": {"stimulus": 1, "trial": 51, "rt": 1076, "response": "Alpha"}, "39": {"stimulus": 11, "trial": 39, "rt": 821, "response": "Alpha"}, "65": {"stimulus": 33, "trial": 65, "rt": 1422, "response": "Alpha"}, "76": {"stimulus": 65, "trial": 76, "rt": 725, "response": "Beta"}, "75": {"stimulus": 44, "trial": 75, "rt": 1882, "response": "Beta"}, "38": {"stimulus": 42, "trial": 38, "rt": 1230, "response": "Alpha"}, "73": {"stimulus": 60, "trial": 73, "rt": 731, "response": "Beta"}, "72": {"stimulus": 47, "trial": 72, "rt": 1119, "response": "Beta"}, "71": {"stimulus": 9, "trial": 71, "rt": 653, "response": "Alpha"}, "70": {"stimulus": 13, "trial": 70, "rt": 637, "response": "Alpha"}, "59": {"stimulus": 58, "trial": 59, "rt": 614, "response": "Beta"}, "79": {"stimulus": 27, "trial": 79, "rt": 1044, "response": "Alpha"}, "58": {"stimulus": 64, "trial": 58, "rt": 730, "response": "Beta"}, "11": {"stimulus": 4, "trial": 11, "rt": 1253, "response": "Alpha"}, "10": {"stimulus": 74, "trial": 10, "rt": 970, "response": "Beta"}, "13": {"stimulus": 0, "trial": 13, "rt": 1018, "response": "Alpha"}, "12": {"stimulus": 15, "trial": 12, "rt": 792, "response": "Alpha"}, "15": {"stimulus": 52, "trial": 15, "rt": 870, "response": "Beta"}, "14": {"stimulus": 63, "trial": 14, "rt": 1219, "response": "Beta"}, "17": {"stimulus": 49, "trial": 17, "rt": 782, "response": "Beta"}, "16": {"stimulus": 77, "trial": 16, "rt": 1141, "response": "Beta"}, "19": {"stimulus": 78, "trial": 19, "rt": 1314, "response": "Beta"}, "18": {"stimulus": 25, "trial": 18, "rt": 1194, "response": "Alpha"}, "31": {"stimulus": 18, "trial": 31, "rt": 1179, "response": "Alpha"}, "30": {"stimulus": 61, "trial": 30, "rt": 1228, "response": "Beta"}, "37": {"stimulus": 7, "trial": 37, "rt": 2427, "response": "Alpha"}, "36": {"stimulus": 19, "trial": 36, "rt": 1088, "response": "Alpha"}, "35": {"stimulus": 22, "trial": 35, "rt": 1013, "response": "Alpha"}, "34": {"stimulus": 54, "trial": 34, "rt": 1103, "response": "Beta"}, "33": {"stimulus": 28, "trial": 33, "rt": 899, "response": "Alpha"}, "55": {"stimulus": 41, "trial": 55, "rt": 1623, "response": "Alpha"}, "74": {"stimulus": 79, "trial": 74, "rt": 597, "response": "Beta"}, "32": {"stimulus": 39, "trial": 32, "rt": 1738, "response": "Alpha"}, "57": {"stimulus": 80, "trial": 57, "rt": 1174, "response": "Beta"}, "50": {"stimulus": 75, "trial": 50, "rt": 1967, "response": "Beta"}}}