{"generation": {"1": {"stimulus": 72, "trial": 1, "rt": 8355}, "0": {"stimulus": 8, "trial": 0, "rt": 13898}, "3": {"stimulus": 0, "trial": 3, "rt": 7202}, "2": {"stimulus": 80, "trial": 2, "rt": 12190}}, "info": {"finish": 1488822422945, "participant": 87, "exposed": true, "lab": false, "start": 1488822110879, "counterbalance": 1, "condition": "XOR", "browser": {"platform": "Win32", "userAgent": "Mozilla/5.0 (Windows NT 6.1; Win64; x64) AppleWebKit/537.36 (KHTML, like Gecko) Chrome/56.0.2924.87 Safari/537.36"}}, "experiment": {"Paradigm": "TACL", "Stimuli": "Size-Color Squares", "Experiment": "Generating-Categories"}, "observation": {"11": {"stimulus": 0, "trial": 11, "rt": 635}, "10": {"stimulus": 70, "trial": 10, "rt": 931}, "1": {"stimulus": 0, "trial": 1, "rt": 1578}, "0": {"stimulus": 70, "trial": 0, "rt": 2264}, "3": {"stimulus": 10, "trial": 3, "rt": 1195}, "2": {"stimulus": 80, "trial": 2, "rt": 2115}, "5": {"stimulus": 70, "trial": 5, "rt": 1075}, "4": {"stimulus": 10, "trial": 4, "rt": 2131}, "7": {"stimulus": 0, "trial": 7, "rt": 1059}, "6": {"stimulus": 80, "trial": 6, "rt": 1139}, "9": {"stimulus": 10, "trial": 9, "rt": 1020}, "8": {"stimulus": 80, "trial": 8, "rt": 1018}}, "generalization": {"56": {"stimulus": 40, "trial": 56, "rt": 707, "response": "Alpha"}, "77": {"stimulus": 54, "trial": 77, "rt": 922, "response": "Beta"}, "54": {"stimulus": 25, "trial": 54, "rt": 971, "response": "Alpha"}, "42": {"stimulus": 75, "trial": 42, "rt": 1290, "response": "Alpha"}, "48": {"stimulus": 6, "trial": 48, "rt": 2706, "response": "Alpha"}, "43": {"stimulus": 45, "trial": 43, "rt": 1707, "response": "Alpha"}, "60": {"stimulus": 14, "trial": 60, "rt": 819, "response": "Alpha"}, "61": {"stimulus": 67, "trial": 61, "rt": 739, "response": "Alpha"}, "62": {"stimulus": 52, "trial": 62, "rt": 2931, "response": "Alpha"}, "63": {"stimulus": 74, "trial": 63, "rt": 2708, "response": "Alpha"}, "64": {"stimulus": 27, "trial": 64, "rt": 1194, "response": "Beta"}, "49": {"stimulus": 11, "trial": 49, "rt": 1003, "response": "Alpha"}, "66": {"stimulus": 76, "trial": 66, "rt": 947, "response": "Alpha"}, "67": {"stimulus": 7, "trial": 67, "rt": 2339, "response": "Alpha"}, "68": {"stimulus": 17, "trial": 68, "rt": 963, "response": "Beta"}, "69": {"stimulus": 0, "trial": 69, "rt": 1667, "response": "Beta"}, "80": {"stimulus": 35, "trial": 80, "rt": 1755, "response": "Alpha"}, "52": {"stimulus": 57, "trial": 52, "rt": 907, "response": "Alpha"}, "53": {"stimulus": 55, "trial": 53, "rt": 1260, "response": "Beta"}, "24": {"stimulus": 60, "trial": 24, "rt": 1522, "response": "Beta"}, "25": {"stimulus": 43, "trial": 25, "rt": 1234, "response": "Beta"}, "26": {"stimulus": 72, "trial": 26, "rt": 2865, "response": "Beta"}, "27": {"stimulus": 69, "trial": 27, "rt": 995, "response": "Alpha"}, "20": {"stimulus": 24, "trial": 20, "rt": 2939, "response": "Alpha"}, "21": {"stimulus": 36, "trial": 21, "rt": 2307, "response": "Alpha"}, "22": {"stimulus": 28, "trial": 22, "rt": 883, "response": "Alpha"}, "23": {"stimulus": 31, "trial": 23, "rt": 875, "response": "Alpha"}, "46": {"stimulus": 48, "trial": 46, "rt": 875, "response": "Alpha"}, "47": {"stimulus": 30, "trial": 47, "rt": 5362, "response": "Alpha"}, "44": {"stimulus": 29, "trial": 44, "rt": 2219, "response": "Alpha"}, "45": {"stimulus": 65, "trial": 45, "rt": 836, "response": "Alpha"}, "28": {"stimulus": 37, "trial": 28, "rt": 2419, "response": "Alpha"}, "29": {"stimulus": 49, "trial": 29, "rt": 779, "response": "Alpha"}, "40": {"stimulus": 8, "trial": 40, "rt": 1082, "response": "Beta"}, "41": {"stimulus": 78, "trial": 41, "rt": 1619, "response": "Alpha"}, "1": {"stimulus": 38, "trial": 1, "rt": 3427, "response": "Alpha"}, "0": {"stimulus": 32, "trial": 0, "rt": 10314, "response": "Alpha"}, "3": {"stimulus": 10, "trial": 3, "rt": 1539, "response": "Beta"}, "2": {"stimulus": 20, "trial": 2, "rt": 1267, "response": "Alpha"}, "5": {"stimulus": 2, "trial": 5, "rt": 3451, "response": "Alpha"}, "4": {"stimulus": 12, "trial": 4, "rt": 1443, "response": "Alpha"}, "7": {"stimulus": 53, "trial": 7, "rt": 1587, "response": "Beta"}, "6": {"stimulus": 9, "trial": 6, "rt": 2339, "response": "Beta"}, "9": {"stimulus": 16, "trial": 9, "rt": 1267, "response": "Beta"}, "8": {"stimulus": 33, "trial": 8, "rt": 2019, "response": "Beta"}, "78": {"stimulus": 3, "trial": 78, "rt": 939, "response": "Alpha"}, "51": {"stimulus": 26, "trial": 51, "rt": 1043, "response": "Beta"}, "39": {"stimulus": 47, "trial": 39, "rt": 971, "response": "Alpha"}, "65": {"stimulus": 22, "trial": 65, "rt": 1003, "response": "Alpha"}, "76": {"stimulus": 63, "trial": 76, "rt": 546, "response": "Alpha"}, "75": {"stimulus": 62, "trial": 75, "rt": 1554, "response": "Beta"}, "38": {"stimulus": 21, "trial": 38, "rt": 875, "response": "Alpha"}, "73": {"stimulus": 61, "trial": 73, "rt": 819, "response": "Alpha"}, "72": {"stimulus": 19, "trial": 72, "rt": 507, "response": "Alpha"}, "71": {"stimulus": 50, "trial": 71, "rt": 483, "response": "Alpha"}, "70": {"stimulus": 39, "trial": 70, "rt": 723, "response": "Alpha"}, "59": {"stimulus": 70, "trial": 59, "rt": 1083, "response": "Alpha"}, "79": {"stimulus": 41, "trial": 79, "rt": 2851, "response": "Alpha"}, "58": {"stimulus": 15, "trial": 58, "rt": 513, "response": "Alpha"}, "11": {"stimulus": 34, "trial": 11, "rt": 2962, "response": "Alpha"}, "10": {"stimulus": 13, "trial": 10, "rt": 1290, "response": "Alpha"}, "13": {"stimulus": 42, "trial": 13, "rt": 1275, "response": "Alpha"}, "12": {"stimulus": 56, "trial": 12, "rt": 3747, "response": "Alpha"}, "15": {"stimulus": 64, "trial": 15, "rt": 2155, "response": "Beta"}, "14": {"stimulus": 68, "trial": 14, "rt": 1499, "response": "Alpha"}, "17": {"stimulus": 77, "trial": 17, "rt": 1603, "response": "Alpha"}, "16": {"stimulus": 66, "trial": 16, "rt": 1371, "response": "Alpha"}, "19": {"stimulus": 1, "trial": 19, "rt": 1340, "response": "Beta"}, "18": {"stimulus": 58, "trial": 18, "rt": 1650, "response": "Alpha"}, "31": {"stimulus": 51, "trial": 31, "rt": 859, "response": "Alpha"}, "30": {"stimulus": 46, "trial": 30, "rt": 1099, "response": "Alpha"}, "37": {"stimulus": 18, "trial": 37, "rt": 1523, "response": "Alpha"}, "36": {"stimulus": 4, "trial": 36, "rt": 1356, "response": "Alpha"}, "35": {"stimulus": 44, "trial": 35, "rt": 1259, "response": "Beta"}, "34": {"stimulus": 71, "trial": 34, "rt": 1227, "response": "Beta"}, "33": {"stimulus": 73, "trial": 33, "rt": 2467, "response": "Beta"}, "55": {"stimulus": 79, "trial": 55, "rt": 1618, "response": "Beta"}, "74": {"stimulus": 23, "trial": 74, "rt": 468, "response": "Alpha"}, "32": {"stimulus": 80, "trial": 32, "rt": 1210, "response": "Beta"}, "57": {"stimulus": 5, "trial": 57, "rt": 803, "response": "Alpha"}, "50": {"stimulus": 59, "trial": 50, "rt": 803, "response": "Alpha"}}}