{"generation": {"1": {"stimulus": 2, "trial": 1, "rt": 6638}, "0": {"stimulus": 74, "trial": 0, "rt": 34611}, "3": {"stimulus": 49, "trial": 3, "rt": 14937}, "2": {"stimulus": 0, "trial": 2, "rt": 5159}}, "info": {"finish": 1488822533562, "participant": 89, "exposed": true, "lab": false, "start": 1488822121734, "counterbalance": 4, "condition": "XOR", "browser": {"platform": "Win32", "userAgent": "Mozilla/5.0 (Windows NT 6.1; WOW64; rv:51.0) Gecko/20100101 Firefox/51.0"}}, "experiment": {"Paradigm": "TACL", "Stimuli": "Size-Color Squares", "Experiment": "Generating-Categories"}, "observation": {"11": {"stimulus": 80, "trial": 11, "rt": 1231}, "10": {"stimulus": 70, "trial": 10, "rt": 1861}, "1": {"stimulus": 70, "trial": 1, "rt": 1715}, "0": {"stimulus": 0, "trial": 0, "rt": 4033}, "3": {"stimulus": 10, "trial": 3, "rt": 1062}, "2": {"stimulus": 80, "trial": 2, "rt": 1726}, "5": {"stimulus": 0, "trial": 5, "rt": 2735}, "4": {"stimulus": 80, "trial": 4, "rt": 1729}, "7": {"stimulus": 10, "trial": 7, "rt": 939}, "6": {"stimulus": 70, "trial": 6, "rt": 1538}, "9": {"stimulus": 10, "trial": 9, "rt": 1523}, "8": {"stimulus": 0, "trial": 8, "rt": 999}}, "generalization": {"56": {"stimulus": 60, "trial": 56, "rt": 642, "response": "Alpha"}, "77": {"stimulus": 54, "trial": 77, "rt": 684, "response": "Alpha"}, "54": {"stimulus": 41, "trial": 54, "rt": 767, "response": "Alpha"}, "42": {"stimulus": 7, "trial": 42, "rt": 985, "response": "Alpha"}, "48": {"stimulus": 38, "trial": 48, "rt": 1426, "response": "Beta"}, "43": {"stimulus": 79, "trial": 43, "rt": 741, "response": "Alpha"}, "60": {"stimulus": 67, "trial": 60, "rt": 1008, "response": "Beta"}, "61": {"stimulus": 35, "trial": 61, "rt": 694, "response": "Alpha"}, "62": {"stimulus": 69, "trial": 62, "rt": 924, "response": "Alpha"}, "63": {"stimulus": 14, "trial": 63, "rt": 692, "response": "Alpha"}, "64": {"stimulus": 20, "trial": 64, "rt": 1046, "response": "Beta"}, "49": {"stimulus": 27, "trial": 49, "rt": 1658, "response": "Beta"}, "66": {"stimulus": 73, "trial": 66, "rt": 1035, "response": "Beta"}, "67": {"stimulus": 21, "trial": 67, "rt": 1360, "response": "Alpha"}, "68": {"stimulus": 12, "trial": 68, "rt": 933, "response": "Alpha"}, "69": {"stimulus": 61, "trial": 69, "rt": 1307, "response": "Alpha"}, "80": {"stimulus": 22, "trial": 80, "rt": 654, "response": "Beta"}, "52": {"stimulus": 68, "trial": 52, "rt": 655, "response": "Alpha"}, "53": {"stimulus": 49, "trial": 53, "rt": 637, "response": "Alpha"}, "24": {"stimulus": 47, "trial": 24, "rt": 1160, "response": "Beta"}, "25": {"stimulus": 48, "trial": 25, "rt": 978, "response": "Alpha"}, "26": {"stimulus": 72, "trial": 26, "rt": 1025, "response": "Alpha"}, "27": {"stimulus": 19, "trial": 27, "rt": 1328, "response": "Beta"}, "20": {"stimulus": 40, "trial": 20, "rt": 775, "response": "Alpha"}, "21": {"stimulus": 4, "trial": 21, "rt": 749, "response": "Alpha"}, "22": {"stimulus": 45, "trial": 22, "rt": 1329, "response": "Alpha"}, "23": {"stimulus": 74, "trial": 23, "rt": 1147, "response": "Beta"}, "46": {"stimulus": 53, "trial": 46, "rt": 1064, "response": "Alpha"}, "47": {"stimulus": 34, "trial": 47, "rt": 1796, "response": "Alpha"}, "44": {"stimulus": 75, "trial": 44, "rt": 6621, "response": "Alpha"}, "45": {"stimulus": 32, "trial": 45, "rt": 788, "response": "Alpha"}, "28": {"stimulus": 50, "trial": 28, "rt": 737, "response": "Alpha"}, "29": {"stimulus": 66, "trial": 29, "rt": 1376, "response": "Alpha"}, "40": {"stimulus": 78, "trial": 40, "rt": 1228, "response": "Alpha"}, "41": {"stimulus": 65, "trial": 41, "rt": 2211, "response": "Alpha"}, "1": {"stimulus": 56, "trial": 1, "rt": 1290, "response": "Beta"}, "0": {"stimulus": 42, "trial": 0, "rt": 3375, "response": "Alpha"}, "3": {"stimulus": 70, "trial": 3, "rt": 1034, "response": "Beta"}, "2": {"stimulus": 25, "trial": 2, "rt": 813, "response": "Alpha"}, "5": {"stimulus": 1, "trial": 5, "rt": 1048, "response": "Alpha"}, "4": {"stimulus": 43, "trial": 4, "rt": 1303, "response": "Alpha"}, "7": {"stimulus": 11, "trial": 7, "rt": 1265, "response": "Beta"}, "6": {"stimulus": 46, "trial": 6, "rt": 1158, "response": "Alpha"}, "9": {"stimulus": 36, "trial": 9, "rt": 611, "response": "Alpha"}, "8": {"stimulus": 55, "trial": 8, "rt": 3678, "response": "Beta"}, "78": {"stimulus": 30, "trial": 78, "rt": 552, "response": "Alpha"}, "51": {"stimulus": 15, "trial": 51, "rt": 4275, "response": "Alpha"}, "39": {"stimulus": 58, "trial": 39, "rt": 1031, "response": "Alpha"}, "65": {"stimulus": 51, "trial": 65, "rt": 14438, "response": "Alpha"}, "76": {"stimulus": 9, "trial": 76, "rt": 1263, "response": "Beta"}, "75": {"stimulus": 77, "trial": 75, "rt": 1213, "response": "Alpha"}, "38": {"stimulus": 57, "trial": 38, "rt": 850, "response": "Alpha"}, "73": {"stimulus": 80, "trial": 73, "rt": 695, "response": "Alpha"}, "72": {"stimulus": 31, "trial": 72, "rt": 1105, "response": "Alpha"}, "71": {"stimulus": 33, "trial": 71, "rt": 1404, "response": "Alpha"}, "70": {"stimulus": 8, "trial": 70, "rt": 1026, "response": "Alpha"}, "59": {"stimulus": 52, "trial": 59, "rt": 604, "response": "Alpha"}, "79": {"stimulus": 3, "trial": 79, "rt": 835, "response": "Beta"}, "58": {"stimulus": 0, "trial": 58, "rt": 1001, "response": "Beta"}, "11": {"stimulus": 18, "trial": 11, "rt": 1214, "response": "Alpha"}, "10": {"stimulus": 17, "trial": 10, "rt": 963, "response": "Alpha"}, "13": {"stimulus": 10, "trial": 13, "rt": 3207, "response": "Beta"}, "12": {"stimulus": 24, "trial": 12, "rt": 653, "response": "Alpha"}, "15": {"stimulus": 26, "trial": 15, "rt": 911, "response": "Alpha"}, "14": {"stimulus": 28, "trial": 14, "rt": 1426, "response": "Beta"}, "17": {"stimulus": 16, "trial": 17, "rt": 621, "response": "Alpha"}, "16": {"stimulus": 39, "trial": 16, "rt": 659, "response": "Alpha"}, "19": {"stimulus": 29, "trial": 19, "rt": 940, "response": "Alpha"}, "18": {"stimulus": 64, "trial": 18, "rt": 1103, "response": "Beta"}, "31": {"stimulus": 59, "trial": 31, "rt": 721, "response": "Alpha"}, "30": {"stimulus": 37, "trial": 30, "rt": 1151, "response": "Beta"}, "37": {"stimulus": 5, "trial": 37, "rt": 794, "response": "Alpha"}, "36": {"stimulus": 13, "trial": 36, "rt": 4030, "response": "Alpha"}, "35": {"stimulus": 2, "trial": 35, "rt": 2806, "response": "Beta"}, "34": {"stimulus": 63, "trial": 34, "rt": 854, "response": "Alpha"}, "33": {"stimulus": 76, "trial": 33, "rt": 1657, "response": "Alpha"}, "55": {"stimulus": 23, "trial": 55, "rt": 622, "response": "Alpha"}, "74": {"stimulus": 6, "trial": 74, "rt": 603, "response": "Alpha"}, "32": {"stimulus": 44, "trial": 32, "rt": 843, "response": "Alpha"}, "57": {"stimulus": 71, "trial": 57, "rt": 588, "response": "Alpha"}, "50": {"stimulus": 62, "trial": 50, "rt": 775, "response": "Alpha"}}}