{"generation": {"1": {"stimulus": 74, "trial": 1, "rt": 7533}, "0": {"stimulus": 72, "trial": 0, "rt": 21968}, "3": {"stimulus": 79, "trial": 3, "rt": 6369}, "2": {"stimulus": 77, "trial": 2, "rt": 3961}}, "info": {"finish": 1488822366639, "participant": 90, "exposed": true, "lab": false, "start": 1488822129303, "counterbalance": 4, "condition": "Row", "browser": {"platform": "Linux x86_64", "userAgent": "Mozilla/5.0 (X11; CrOS x86_64 9000.91.0) AppleWebKit/537.36 (KHTML, like Gecko) Chrome/56.0.2924.110 Safari/537.36"}}, "experiment": {"Paradigm": "TACL", "Stimuli": "Size-Color Squares", "Experiment": "Generating-Categories"}, "observation": {"11": {"stimulus": 16, "trial": 11, "rt": 1199}, "10": {"stimulus": 10, "trial": 10, "rt": 995}, "1": {"stimulus": 16, "trial": 1, "rt": 2355}, "0": {"stimulus": 14, "trial": 0, "rt": 3441}, "3": {"stimulus": 10, "trial": 3, "rt": 1088}, "2": {"stimulus": 12, "trial": 2, "rt": 1198}, "5": {"stimulus": 12, "trial": 5, "rt": 1147}, "4": {"stimulus": 14, "trial": 4, "rt": 1093}, "7": {"stimulus": 16, "trial": 7, "rt": 1006}, "6": {"stimulus": 10, "trial": 6, "rt": 1030}, "9": {"stimulus": 14, "trial": 9, "rt": 645}, "8": {"stimulus": 12, "trial": 8, "rt": 608}}, "generalization": {"56": {"stimulus": 10, "trial": 56, "rt": 765, "response": "Beta"}, "77": {"stimulus": 18, "trial": 77, "rt": 807, "response": "Alpha"}, "54": {"stimulus": 23, "trial": 54, "rt": 720, "response": "Alpha"}, "42": {"stimulus": 56, "trial": 42, "rt": 615, "response": "Beta"}, "48": {"stimulus": 1, "trial": 48, "rt": 1098, "response": "Alpha"}, "43": {"stimulus": 44, "trial": 43, "rt": 1111, "response": "Alpha"}, "60": {"stimulus": 69, "trial": 60, "rt": 1391, "response": "Beta"}, "61": {"stimulus": 80, "trial": 61, "rt": 1232, "response": "Beta"}, "62": {"stimulus": 39, "trial": 62, "rt": 675, "response": "Beta"}, "63": {"stimulus": 21, "trial": 63, "rt": 1092, "response": "Alpha"}, "64": {"stimulus": 55, "trial": 64, "rt": 1059, "response": "Beta"}, "49": {"stimulus": 14, "trial": 49, "rt": 819, "response": "Alpha"}, "66": {"stimulus": 57, "trial": 66, "rt": 795, "response": "Alpha"}, "67": {"stimulus": 59, "trial": 67, "rt": 562, "response": "Alpha"}, "68": {"stimulus": 27, "trial": 68, "rt": 889, "response": "Beta"}, "69": {"stimulus": 51, "trial": 69, "rt": 847, "response": "Alpha"}, "80": {"stimulus": 66, "trial": 80, "rt": 720, "response": "Beta"}, "52": {"stimulus": 25, "trial": 52, "rt": 1040, "response": "Alpha"}, "53": {"stimulus": 6, "trial": 53, "rt": 848, "response": "Alpha"}, "24": {"stimulus": 17, "trial": 24, "rt": 813, "response": "Alpha"}, "25": {"stimulus": 50, "trial": 25, "rt": 1771, "response": "Alpha"}, "26": {"stimulus": 41, "trial": 26, "rt": 592, "response": "Alpha"}, "27": {"stimulus": 77, "trial": 27, "rt": 1022, "response": "Beta"}, "20": {"stimulus": 60, "trial": 20, "rt": 1293, "response": "Beta"}, "21": {"stimulus": 47, "trial": 21, "rt": 1789, "response": "Alpha"}, "22": {"stimulus": 62, "trial": 22, "rt": 1224, "response": "Beta"}, "23": {"stimulus": 24, "trial": 23, "rt": 970, "response": "Alpha"}, "46": {"stimulus": 30, "trial": 46, "rt": 1023, "response": "Alpha"}, "47": {"stimulus": 40, "trial": 47, "rt": 563, "response": "Alpha"}, "44": {"stimulus": 38, "trial": 44, "rt": 738, "response": "Alpha"}, "45": {"stimulus": 79, "trial": 45, "rt": 1444, "response": "Beta"}, "28": {"stimulus": 45, "trial": 28, "rt": 1007, "response": "Beta"}, "29": {"stimulus": 0, "trial": 29, "rt": 1086, "response": "Alpha"}, "40": {"stimulus": 48, "trial": 40, "rt": 977, "response": "Beta"}, "41": {"stimulus": 58, "trial": 41, "rt": 621, "response": "Beta"}, "1": {"stimulus": 71, "trial": 1, "rt": 1729, "response": "Beta"}, "0": {"stimulus": 46, "trial": 0, "rt": 2860, "response": "Alpha"}, "3": {"stimulus": 12, "trial": 3, "rt": 1111, "response": "Alpha"}, "2": {"stimulus": 33, "trial": 2, "rt": 1152, "response": "Alpha"}, "5": {"stimulus": 49, "trial": 5, "rt": 838, "response": "Beta"}, "4": {"stimulus": 26, "trial": 4, "rt": 1012, "response": "Alpha"}, "7": {"stimulus": 64, "trial": 7, "rt": 802, "response": "Beta"}, "6": {"stimulus": 4, "trial": 6, "rt": 1065, "response": "Alpha"}, "9": {"stimulus": 2, "trial": 9, "rt": 721, "response": "Alpha"}, "8": {"stimulus": 20, "trial": 8, "rt": 1818, "response": "Alpha"}, "78": {"stimulus": 65, "trial": 78, "rt": 999, "response": "Beta"}, "51": {"stimulus": 68, "trial": 51, "rt": 1204, "response": "Beta"}, "39": {"stimulus": 54, "trial": 39, "rt": 1052, "response": "Beta"}, "65": {"stimulus": 8, "trial": 65, "rt": 970, "response": "Alpha"}, "76": {"stimulus": 7, "trial": 76, "rt": 620, "response": "Alpha"}, "75": {"stimulus": 31, "trial": 75, "rt": 871, "response": "Alpha"}, "38": {"stimulus": 70, "trial": 38, "rt": 539, "response": "Alpha"}, "73": {"stimulus": 32, "trial": 73, "rt": 643, "response": "Alpha"}, "72": {"stimulus": 34, "trial": 72, "rt": 741, "response": "Alpha"}, "71": {"stimulus": 37, "trial": 71, "rt": 632, "response": "Alpha"}, "70": {"stimulus": 15, "trial": 70, "rt": 789, "response": "Alpha"}, "59": {"stimulus": 13, "trial": 59, "rt": 666, "response": "Alpha"}, "79": {"stimulus": 61, "trial": 79, "rt": 1135, "response": "Beta"}, "58": {"stimulus": 11, "trial": 58, "rt": 1186, "response": "Alpha"}, "11": {"stimulus": 16, "trial": 11, "rt": 1404, "response": "Alpha"}, "10": {"stimulus": 52, "trial": 10, "rt": 878, "response": "Beta"}, "13": {"stimulus": 36, "trial": 13, "rt": 1018, "response": "Beta"}, "12": {"stimulus": 9, "trial": 12, "rt": 1202, "response": "Alpha"}, "15": {"stimulus": 35, "trial": 15, "rt": 832, "response": "Alpha"}, "14": {"stimulus": 28, "trial": 14, "rt": 1450, "response": "Alpha"}, "17": {"stimulus": 43, "trial": 17, "rt": 1299, "response": "Beta"}, "16": {"stimulus": 63, "trial": 16, "rt": 871, "response": "Beta"}, "19": {"stimulus": 67, "trial": 19, "rt": 1264, "response": "Beta"}, "18": {"stimulus": 42, "trial": 18, "rt": 1036, "response": "Beta"}, "31": {"stimulus": 22, "trial": 31, "rt": 1261, "response": "Alpha"}, "30": {"stimulus": 76, "trial": 30, "rt": 1146, "response": "Beta"}, "37": {"stimulus": 3, "trial": 37, "rt": 701, "response": "Alpha"}, "36": {"stimulus": 29, "trial": 36, "rt": 878, "response": "Alpha"}, "35": {"stimulus": 78, "trial": 35, "rt": 1444, "response": "Beta"}, "34": {"stimulus": 19, "trial": 34, "rt": 545, "response": "Alpha"}, "33": {"stimulus": 5, "trial": 33, "rt": 865, "response": "Alpha"}, "55": {"stimulus": 74, "trial": 55, "rt": 737, "response": "Alpha"}, "74": {"stimulus": 53, "trial": 74, "rt": 899, "response": "Beta"}, "32": {"stimulus": 72, "trial": 32, "rt": 807, "response": "Beta"}, "57": {"stimulus": 75, "trial": 57, "rt": 965, "response": "Alpha"}, "50": {"stimulus": 73, "trial": 50, "rt": 882, "response": "Alpha"}}}