{"generation": {"1": {"stimulus": 59, "trial": 1, "rt": 10380}, "0": {"stimulus": 77, "trial": 0, "rt": 16914}, "3": {"stimulus": 69, "trial": 3, "rt": 5917}, "2": {"stimulus": 17, "trial": 2, "rt": 9364}}, "info": {"finish": 1488818975986, "participant": 91, "exposed": true, "lab": false, "start": 1488818516278, "counterbalance": 6, "condition": "XOR", "browser": {"platform": "Win32", "userAgent": "Mozilla/5.0 (Windows NT 10.0; Win64; x64) AppleWebKit/537.36 (KHTML, like Gecko) Chrome/56.0.2924.87 Safari/537.36"}}, "experiment": {"Paradigm": "TACL", "Stimuli": "Size-Color Squares", "Experiment": "Generating-Categories"}, "observation": {"11": {"stimulus": 10, "trial": 11, "rt": 1078}, "10": {"stimulus": 0, "trial": 10, "rt": 1985}, "1": {"stimulus": 10, "trial": 1, "rt": 2609}, "0": {"stimulus": 80, "trial": 0, "rt": 3491}, "3": {"stimulus": 70, "trial": 3, "rt": 2038}, "2": {"stimulus": 0, "trial": 2, "rt": 2191}, "5": {"stimulus": 70, "trial": 5, "rt": 2388}, "4": {"stimulus": 0, "trial": 4, "rt": 927}, "7": {"stimulus": 10, "trial": 7, "rt": 1817}, "6": {"stimulus": 80, "trial": 6, "rt": 2087}, "9": {"stimulus": 80, "trial": 9, "rt": 1873}, "8": {"stimulus": 70, "trial": 8, "rt": 1496}}, "generalization": {"56": {"stimulus": 34, "trial": 56, "rt": 1739, "response": "Alpha"}, "77": {"stimulus": 68, "trial": 77, "rt": 1708, "response": "Beta"}, "54": {"stimulus": 9, "trial": 54, "rt": 1719, "response": "Alpha"}, "42": {"stimulus": 31, "trial": 42, "rt": 1638, "response": "Alpha"}, "48": {"stimulus": 15, "trial": 48, "rt": 1357, "response": "Beta"}, "43": {"stimulus": 54, "trial": 43, "rt": 1305, "response": "Alpha"}, "60": {"stimulus": 50, "trial": 60, "rt": 1200, "response": "Beta"}, "61": {"stimulus": 30, "trial": 61, "rt": 1389, "response": "Beta"}, "62": {"stimulus": 3, "trial": 62, "rt": 1256, "response": "Beta"}, "63": {"stimulus": 74, "trial": 63, "rt": 1569, "response": "Beta"}, "64": {"stimulus": 11, "trial": 64, "rt": 1299, "response": "Alpha"}, "49": {"stimulus": 22, "trial": 49, "rt": 1939, "response": "Beta"}, "66": {"stimulus": 42, "trial": 66, "rt": 1149, "response": "Beta"}, "67": {"stimulus": 38, "trial": 67, "rt": 1452, "response": "Alpha"}, "68": {"stimulus": 6, "trial": 68, "rt": 1388, "response": "Beta"}, "69": {"stimulus": 75, "trial": 69, "rt": 1518, "response": "Beta"}, "80": {"stimulus": 79, "trial": 80, "rt": 1182, "response": "Alpha"}, "52": {"stimulus": 57, "trial": 52, "rt": 1294, "response": "Beta"}, "53": {"stimulus": 52, "trial": 53, "rt": 1103, "response": "Alpha"}, "24": {"stimulus": 49, "trial": 24, "rt": 1004, "response": "Alpha"}, "25": {"stimulus": 71, "trial": 25, "rt": 2602, "response": "Alpha"}, "26": {"stimulus": 45, "trial": 26, "rt": 1036, "response": "Alpha"}, "27": {"stimulus": 60, "trial": 27, "rt": 856, "response": "Alpha"}, "20": {"stimulus": 18, "trial": 20, "rt": 978, "response": "Alpha"}, "21": {"stimulus": 51, "trial": 21, "rt": 1381, "response": "Beta"}, "22": {"stimulus": 72, "trial": 22, "rt": 1432, "response": "Beta"}, "23": {"stimulus": 77, "trial": 23, "rt": 1012, "response": "Beta"}, "46": {"stimulus": 53, "trial": 46, "rt": 1362, "response": "Alpha"}, "47": {"stimulus": 36, "trial": 47, "rt": 2934, "response": "Alpha"}, "44": {"stimulus": 1, "trial": 44, "rt": 1342, "response": "Beta"}, "45": {"stimulus": 35, "trial": 45, "rt": 1146, "response": "Beta"}, "28": {"stimulus": 64, "trial": 28, "rt": 1097, "response": "Alpha"}, "29": {"stimulus": 55, "trial": 29, "rt": 1456, "response": "Alpha"}, "40": {"stimulus": 70, "trial": 40, "rt": 1273, "response": "Alpha"}, "41": {"stimulus": 4, "trial": 41, "rt": 1674, "response": "Alpha"}, "1": {"stimulus": 58, "trial": 1, "rt": 1806, "response": "Beta"}, "0": {"stimulus": 2, "trial": 0, "rt": 2373, "response": "Alpha"}, "3": {"stimulus": 29, "trial": 3, "rt": 1558, "response": "Alpha"}, "2": {"stimulus": 7, "trial": 2, "rt": 2654, "response": "Alpha"}, "5": {"stimulus": 16, "trial": 5, "rt": 1999, "response": "Beta"}, "4": {"stimulus": 47, "trial": 4, "rt": 2341, "response": "Alpha"}, "7": {"stimulus": 44, "trial": 7, "rt": 1198, "response": "Alpha"}, "6": {"stimulus": 26, "trial": 6, "rt": 1110, "response": "Beta"}, "9": {"stimulus": 61, "trial": 9, "rt": 1302, "response": "Beta"}, "8": {"stimulus": 17, "trial": 8, "rt": 1634, "response": "Alpha"}, "78": {"stimulus": 23, "trial": 78, "rt": 1496, "response": "Beta"}, "51": {"stimulus": 76, "trial": 51, "rt": 1265, "response": "Beta"}, "39": {"stimulus": 48, "trial": 39, "rt": 1253, "response": "Alpha"}, "65": {"stimulus": 69, "trial": 65, "rt": 2610, "response": "Beta"}, "76": {"stimulus": 8, "trial": 76, "rt": 1672, "response": "Alpha"}, "75": {"stimulus": 39, "trial": 75, "rt": 1287, "response": "Beta"}, "38": {"stimulus": 40, "trial": 38, "rt": 1157, "response": "Beta"}, "73": {"stimulus": 12, "trial": 73, "rt": 1242, "response": "Beta"}, "72": {"stimulus": 28, "trial": 72, "rt": 1079, "response": "Alpha"}, "71": {"stimulus": 78, "trial": 71, "rt": 1209, "response": "Beta"}, "70": {"stimulus": 41, "trial": 70, "rt": 1437, "response": "Beta"}, "59": {"stimulus": 63, "trial": 59, "rt": 839, "response": "Alpha"}, "79": {"stimulus": 56, "trial": 79, "rt": 1074, "response": "Beta"}, "58": {"stimulus": 73, "trial": 58, "rt": 1378, "response": "Alpha"}, "11": {"stimulus": 13, "trial": 11, "rt": 1188, "response": "Beta"}, "10": {"stimulus": 14, "trial": 10, "rt": 1778, "response": "Beta"}, "13": {"stimulus": 33, "trial": 13, "rt": 1277, "response": "Beta"}, "12": {"stimulus": 19, "trial": 12, "rt": 1219, "response": "Alpha"}, "15": {"stimulus": 0, "trial": 15, "rt": 954, "response": "Alpha"}, "14": {"stimulus": 21, "trial": 14, "rt": 1399, "response": "Beta"}, "17": {"stimulus": 65, "trial": 17, "rt": 1887, "response": "Beta"}, "16": {"stimulus": 20, "trial": 16, "rt": 2312, "response": "Beta"}, "19": {"stimulus": 43, "trial": 19, "rt": 2029, "response": "Alpha"}, "18": {"stimulus": 27, "trial": 18, "rt": 1410, "response": "Alpha"}, "31": {"stimulus": 32, "trial": 31, "rt": 1360, "response": "Beta"}, "30": {"stimulus": 80, "trial": 30, "rt": 1404, "response": "Beta"}, "37": {"stimulus": 24, "trial": 37, "rt": 2632, "response": "Alpha"}, "36": {"stimulus": 66, "trial": 36, "rt": 1238, "response": "Alpha"}, "35": {"stimulus": 5, "trial": 35, "rt": 2238, "response": "Beta"}, "34": {"stimulus": 37, "trial": 34, "rt": 1574, "response": "Beta"}, "33": {"stimulus": 25, "trial": 33, "rt": 1766, "response": "Alpha"}, "55": {"stimulus": 67, "trial": 55, "rt": 1473, "response": "Alpha"}, "74": {"stimulus": 10, "trial": 74, "rt": 1243, "response": "Alpha"}, "32": {"stimulus": 59, "trial": 32, "rt": 1331, "response": "Alpha"}, "57": {"stimulus": 62, "trial": 57, "rt": 1307, "response": "Beta"}, "50": {"stimulus": 46, "trial": 50, "rt": 1071, "response": "Alpha"}}}