{"generation": {"1": {"stimulus": 61, "trial": 1, "rt": 11200}, "0": {"stimulus": 55, "trial": 0, "rt": 11163}, "3": {"stimulus": 9, "trial": 3, "rt": 8314}, "2": {"stimulus": 0, "trial": 2, "rt": 7017}}, "info": {"finish": 1488822470227, "participant": 93, "exposed": true, "lab": false, "start": 1488822172146, "counterbalance": 3, "condition": "Row", "browser": {"platform": "Linux x86_64", "userAgent": "Mozilla/5.0 (X11; Linux x86_64) AppleWebKit/537.36 (KHTML, like Gecko) Chrome/56.0.2924.87 Safari/537.36"}}, "experiment": {"Paradigm": "TACL", "Stimuli": "Size-Color Squares", "Experiment": "Generating-Categories"}, "observation": {"11": {"stimulus": 16, "trial": 11, "rt": 1214}, "10": {"stimulus": 12, "trial": 10, "rt": 1195}, "1": {"stimulus": 16, "trial": 1, "rt": 2610}, "0": {"stimulus": 14, "trial": 0, "rt": 3984}, "3": {"stimulus": 10, "trial": 3, "rt": 1917}, "2": {"stimulus": 12, "trial": 2, "rt": 1939}, "5": {"stimulus": 10, "trial": 5, "rt": 1660}, "4": {"stimulus": 14, "trial": 4, "rt": 1633}, "7": {"stimulus": 12, "trial": 7, "rt": 1719}, "6": {"stimulus": 16, "trial": 6, "rt": 1413}, "9": {"stimulus": 14, "trial": 9, "rt": 1248}, "8": {"stimulus": 10, "trial": 8, "rt": 1531}}, "generalization": {"56": {"stimulus": 3, "trial": 56, "rt": 1475, "response": "Beta"}, "77": {"stimulus": 34, "trial": 77, "rt": 1260, "response": "Alpha"}, "54": {"stimulus": 46, "trial": 54, "rt": 654, "response": "Beta"}, "42": {"stimulus": 77, "trial": 42, "rt": 1006, "response": "Beta"}, "48": {"stimulus": 64, "trial": 48, "rt": 1115, "response": "Beta"}, "43": {"stimulus": 31, "trial": 43, "rt": 1643, "response": "Alpha"}, "60": {"stimulus": 67, "trial": 60, "rt": 739, "response": "Beta"}, "61": {"stimulus": 15, "trial": 61, "rt": 1301, "response": "Alpha"}, "62": {"stimulus": 75, "trial": 62, "rt": 1003, "response": "Beta"}, "63": {"stimulus": 45, "trial": 63, "rt": 957, "response": "Beta"}, "64": {"stimulus": 14, "trial": 64, "rt": 1467, "response": "Alpha"}, "49": {"stimulus": 65, "trial": 49, "rt": 827, "response": "Beta"}, "66": {"stimulus": 62, "trial": 66, "rt": 1045, "response": "Beta"}, "67": {"stimulus": 16, "trial": 67, "rt": 1194, "response": "Alpha"}, "68": {"stimulus": 12, "trial": 68, "rt": 2249, "response": "Alpha"}, "69": {"stimulus": 9, "trial": 69, "rt": 2230, "response": "Beta"}, "80": {"stimulus": 43, "trial": 80, "rt": 1181, "response": "Beta"}, "52": {"stimulus": 30, "trial": 52, "rt": 1445, "response": "Alpha"}, "53": {"stimulus": 60, "trial": 53, "rt": 806, "response": "Beta"}, "24": {"stimulus": 58, "trial": 24, "rt": 1480, "response": "Beta"}, "25": {"stimulus": 40, "trial": 25, "rt": 1179, "response": "Alpha"}, "26": {"stimulus": 71, "trial": 26, "rt": 1161, "response": "Beta"}, "27": {"stimulus": 20, "trial": 27, "rt": 1263, "response": "Alpha"}, "20": {"stimulus": 73, "trial": 20, "rt": 1554, "response": "Beta"}, "21": {"stimulus": 57, "trial": 21, "rt": 1559, "response": "Beta"}, "22": {"stimulus": 39, "trial": 22, "rt": 1366, "response": "Alpha"}, "23": {"stimulus": 36, "trial": 23, "rt": 963, "response": "Alpha"}, "46": {"stimulus": 25, "trial": 46, "rt": 1120, "response": "Alpha"}, "47": {"stimulus": 23, "trial": 47, "rt": 814, "response": "Alpha"}, "44": {"stimulus": 7, "trial": 44, "rt": 1547, "response": "Beta"}, "45": {"stimulus": 47, "trial": 45, "rt": 1642, "response": "Beta"}, "28": {"stimulus": 69, "trial": 28, "rt": 1283, "response": "Beta"}, "29": {"stimulus": 10, "trial": 29, "rt": 1178, "response": "Alpha"}, "40": {"stimulus": 13, "trial": 40, "rt": 822, "response": "Alpha"}, "41": {"stimulus": 0, "trial": 41, "rt": 1563, "response": "Beta"}, "1": {"stimulus": 21, "trial": 1, "rt": 2151, "response": "Alpha"}, "0": {"stimulus": 54, "trial": 0, "rt": 2680, "response": "Beta"}, "3": {"stimulus": 19, "trial": 3, "rt": 1550, "response": "Alpha"}, "2": {"stimulus": 38, "trial": 2, "rt": 1360, "response": "Beta"}, "5": {"stimulus": 66, "trial": 5, "rt": 1076, "response": "Beta"}, "4": {"stimulus": 6, "trial": 4, "rt": 3030, "response": "Beta"}, "7": {"stimulus": 78, "trial": 7, "rt": 1314, "response": "Alpha"}, "6": {"stimulus": 59, "trial": 6, "rt": 1054, "response": "Beta"}, "9": {"stimulus": 44, "trial": 9, "rt": 1647, "response": "Alpha"}, "8": {"stimulus": 1, "trial": 8, "rt": 2348, "response": "Beta"}, "78": {"stimulus": 17, "trial": 78, "rt": 1199, "response": "Alpha"}, "51": {"stimulus": 79, "trial": 51, "rt": 777, "response": "Beta"}, "39": {"stimulus": 32, "trial": 39, "rt": 1436, "response": "Alpha"}, "65": {"stimulus": 72, "trial": 65, "rt": 792, "response": "Beta"}, "76": {"stimulus": 41, "trial": 76, "rt": 1392, "response": "Alpha"}, "75": {"stimulus": 56, "trial": 75, "rt": 692, "response": "Beta"}, "38": {"stimulus": 70, "trial": 38, "rt": 721, "response": "Beta"}, "73": {"stimulus": 5, "trial": 73, "rt": 1491, "response": "Beta"}, "72": {"stimulus": 63, "trial": 72, "rt": 864, "response": "Beta"}, "71": {"stimulus": 27, "trial": 71, "rt": 1005, "response": "Beta"}, "70": {"stimulus": 28, "trial": 70, "rt": 1565, "response": "Beta"}, "59": {"stimulus": 8, "trial": 59, "rt": 866, "response": "Beta"}, "79": {"stimulus": 52, "trial": 79, "rt": 1178, "response": "Beta"}, "58": {"stimulus": 61, "trial": 58, "rt": 1026, "response": "Beta"}, "11": {"stimulus": 55, "trial": 11, "rt": 1230, "response": "Alpha"}, "10": {"stimulus": 53, "trial": 10, "rt": 2071, "response": "Alpha"}, "13": {"stimulus": 4, "trial": 13, "rt": 2328, "response": "Beta"}, "12": {"stimulus": 50, "trial": 12, "rt": 964, "response": "Alpha"}, "15": {"stimulus": 18, "trial": 15, "rt": 1003, "response": "Alpha"}, "14": {"stimulus": 22, "trial": 14, "rt": 1584, "response": "Alpha"}, "17": {"stimulus": 76, "trial": 17, "rt": 1372, "response": "Beta"}, "16": {"stimulus": 48, "trial": 16, "rt": 1084, "response": "Alpha"}, "19": {"stimulus": 33, "trial": 19, "rt": 1124, "response": "Alpha"}, "18": {"stimulus": 51, "trial": 18, "rt": 1410, "response": "Alpha"}, "31": {"stimulus": 11, "trial": 31, "rt": 2691, "response": "Beta"}, "30": {"stimulus": 29, "trial": 30, "rt": 1193, "response": "Alpha"}, "37": {"stimulus": 80, "trial": 37, "rt": 1299, "response": "Beta"}, "36": {"stimulus": 2, "trial": 36, "rt": 1817, "response": "Beta"}, "35": {"stimulus": 37, "trial": 35, "rt": 1670, "response": "Beta"}, "34": {"stimulus": 74, "trial": 34, "rt": 1130, "response": "Beta"}, "33": {"stimulus": 35, "trial": 33, "rt": 3188, "response": "Alpha"}, "55": {"stimulus": 42, "trial": 55, "rt": 1295, "response": "Alpha"}, "74": {"stimulus": 68, "trial": 74, "rt": 1029, "response": "Beta"}, "32": {"stimulus": 26, "trial": 32, "rt": 2308, "response": "Alpha"}, "57": {"stimulus": 24, "trial": 57, "rt": 1370, "response": "Alpha"}, "50": {"stimulus": 49, "trial": 50, "rt": 1215, "response": "Beta"}}}