{"generation": {"1": {"stimulus": 79, "trial": 1, "rt": 9520}, "0": {"stimulus": 80, "trial": 0, "rt": 11661}, "3": {"stimulus": 76, "trial": 3, "rt": 4512}, "2": {"stimulus": 78, "trial": 2, "rt": 7598}}, "info": {"participant": 94, "exposed": true, "lab": false, "start": 1488822172076, "counterbalance": 6, "condition": "Row", "browser": {"platform": "Win32", "userAgent": "Mozilla/5.0 (Windows NT 10.0; WOW64; rv:51.0) Gecko/20100101 Firefox/51.0"}}, "experiment": {"Paradigm": "TACL", "Stimuli": "Size-Color Squares", "Experiment": "Generating-Categories"}, "observation": {"11": {"stimulus": 12, "trial": 11, "rt": 1265}, "10": {"stimulus": 14, "trial": 10, "rt": 1095}, "1": {"stimulus": 10, "trial": 1, "rt": 1519}, "0": {"stimulus": 14, "trial": 0, "rt": 2077}, "3": {"stimulus": 12, "trial": 3, "rt": 1035}, "2": {"stimulus": 16, "trial": 2, "rt": 1195}, "5": {"stimulus": 16, "trial": 5, "rt": 997}, "4": {"stimulus": 12, "trial": 4, "rt": 1041}, "7": {"stimulus": 10, "trial": 7, "rt": 989}, "6": {"stimulus": 14, "trial": 6, "rt": 972}, "9": {"stimulus": 10, "trial": 9, "rt": 972}, "8": {"stimulus": 16, "trial": 8, "rt": 998}}, "generalization": {"56": {"stimulus": 42, "trial": 56, "rt": 721, "response": "Alpha"}, "77": {"stimulus": 62, "trial": 77, "rt": 451, "response": "Beta"}, "54": {"stimulus": 30, "trial": 54, "rt": 613, "response": "Alpha"}, "42": {"stimulus": 63, "trial": 42, "rt": 488, "response": "Beta"}, "48": {"stimulus": 2, "trial": 48, "rt": 476, "response": "Alpha"}, "43": {"stimulus": 79, "trial": 43, "rt": 451, "response": "Beta"}, "60": {"stimulus": 15, "trial": 60, "rt": 619, "response": "Alpha"}, "61": {"stimulus": 6, "trial": 61, "rt": 537, "response": "Alpha"}, "62": {"stimulus": 13, "trial": 62, "rt": 589, "response": "Alpha"}, "63": {"stimulus": 80, "trial": 63, "rt": 1018, "response": "Beta"}, "64": {"stimulus": 23, "trial": 64, "rt": 894, "response": "Alpha"}, "49": {"stimulus": 68, "trial": 49, "rt": 988, "response": "Beta"}, "66": {"stimulus": 73, "trial": 66, "rt": 803, "response": "Beta"}, "67": {"stimulus": 41, "trial": 67, "rt": 1819, "response": "Alpha"}, "68": {"stimulus": 72, "trial": 68, "rt": 935, "response": "Beta"}, "69": {"stimulus": 38, "trial": 69, "rt": 1011, "response": "Alpha"}, "80": {"stimulus": 71, "trial": 80, "rt": 1374, "response": "Beta"}, "52": {"stimulus": 17, "trial": 52, "rt": 475, "response": "Alpha"}, "53": {"stimulus": 40, "trial": 53, "rt": 565, "response": "Alpha"}, "24": {"stimulus": 48, "trial": 24, "rt": 713, "response": "Beta"}, "25": {"stimulus": 1, "trial": 25, "rt": 795, "response": "Alpha"}, "26": {"stimulus": 56, "trial": 26, "rt": 751, "response": "Beta"}, "27": {"stimulus": 24, "trial": 27, "rt": 894, "response": "Alpha"}, "20": {"stimulus": 8, "trial": 20, "rt": 772, "response": "Alpha"}, "21": {"stimulus": 20, "trial": 21, "rt": 705, "response": "Alpha"}, "22": {"stimulus": 65, "trial": 22, "rt": 873, "response": "Beta"}, "23": {"stimulus": 34, "trial": 23, "rt": 1041, "response": "Alpha"}, "46": {"stimulus": 77, "trial": 46, "rt": 764, "response": "Beta"}, "47": {"stimulus": 28, "trial": 47, "rt": 826, "response": "Alpha"}, "44": {"stimulus": 7, "trial": 44, "rt": 705, "response": "Alpha"}, "45": {"stimulus": 26, "trial": 45, "rt": 735, "response": "Alpha"}, "28": {"stimulus": 21, "trial": 28, "rt": 536, "response": "Alpha"}, "29": {"stimulus": 60, "trial": 29, "rt": 773, "response": "Beta"}, "40": {"stimulus": 0, "trial": 40, "rt": 726, "response": "Alpha"}, "41": {"stimulus": 75, "trial": 41, "rt": 1126, "response": "Beta"}, "1": {"stimulus": 52, "trial": 1, "rt": 1178, "response": "Alpha"}, "0": {"stimulus": 14, "trial": 0, "rt": 1540, "response": "Alpha"}, "3": {"stimulus": 32, "trial": 3, "rt": 756, "response": "Alpha"}, "2": {"stimulus": 64, "trial": 2, "rt": 850, "response": "Beta"}, "5": {"stimulus": 3, "trial": 5, "rt": 734, "response": "Alpha"}, "4": {"stimulus": 19, "trial": 4, "rt": 721, "response": "Alpha"}, "7": {"stimulus": 10, "trial": 7, "rt": 635, "response": "Alpha"}, "6": {"stimulus": 39, "trial": 6, "rt": 1011, "response": "Alpha"}, "9": {"stimulus": 4, "trial": 9, "rt": 767, "response": "Alpha"}, "8": {"stimulus": 54, "trial": 8, "rt": 949, "response": "Beta"}, "78": {"stimulus": 59, "trial": 78, "rt": 611, "response": "Beta"}, "51": {"stimulus": 50, "trial": 51, "rt": 826, "response": "Alpha"}, "39": {"stimulus": 67, "trial": 39, "rt": 765, "response": "Beta"}, "65": {"stimulus": 16, "trial": 65, "rt": 567, "response": "Alpha"}, "76": {"stimulus": 74, "trial": 76, "rt": 467, "response": "Beta"}, "75": {"stimulus": 55, "trial": 75, "rt": 473, "response": "Beta"}, "38": {"stimulus": 33, "trial": 38, "rt": 781, "response": "Alpha"}, "73": {"stimulus": 78, "trial": 73, "rt": 897, "response": "Beta"}, "72": {"stimulus": 22, "trial": 72, "rt": 4949, "response": "Alpha"}, "71": {"stimulus": 12, "trial": 71, "rt": 705, "response": "Alpha"}, "70": {"stimulus": 35, "trial": 70, "rt": 719, "response": "Alpha"}, "59": {"stimulus": 36, "trial": 59, "rt": 910, "response": "Alpha"}, "79": {"stimulus": 51, "trial": 79, "rt": 458, "response": "Beta"}, "58": {"stimulus": 69, "trial": 58, "rt": 451, "response": "Alpha"}, "11": {"stimulus": 31, "trial": 11, "rt": 1003, "response": "Beta"}, "10": {"stimulus": 49, "trial": 10, "rt": 672, "response": "Beta"}, "13": {"stimulus": 37, "trial": 13, "rt": 543, "response": "Beta"}, "12": {"stimulus": 57, "trial": 12, "rt": 568, "response": "Beta"}, "15": {"stimulus": 25, "trial": 15, "rt": 828, "response": "Alpha"}, "14": {"stimulus": 58, "trial": 14, "rt": 519, "response": "Beta"}, "17": {"stimulus": 53, "trial": 17, "rt": 613, "response": "Beta"}, "16": {"stimulus": 70, "trial": 16, "rt": 1211, "response": "Beta"}, "19": {"stimulus": 46, "trial": 19, "rt": 491, "response": "Beta"}, "18": {"stimulus": 47, "trial": 18, "rt": 478, "response": "Beta"}, "31": {"stimulus": 43, "trial": 31, "rt": 818, "response": "Beta"}, "30": {"stimulus": 5, "trial": 30, "rt": 781, "response": "Alpha"}, "37": {"stimulus": 76, "trial": 37, "rt": 466, "response": "Beta"}, "36": {"stimulus": 61, "trial": 36, "rt": 719, "response": "Beta"}, "35": {"stimulus": 9, "trial": 35, "rt": 921, "response": "Alpha"}, "34": {"stimulus": 45, "trial": 34, "rt": 1056, "response": "Beta"}, "33": {"stimulus": 11, "trial": 33, "rt": 835, "response": "Alpha"}, "55": {"stimulus": 18, "trial": 55, "rt": 535, "response": "Alpha"}, "74": {"stimulus": 66, "trial": 74, "rt": 520, "response": "Beta"}, "32": {"stimulus": 29, "trial": 32, "rt": 920, "response": "Alpha"}, "57": {"stimulus": 44, "trial": 57, "rt": 543, "response": "Alpha"}, "50": {"stimulus": 27, "trial": 50, "rt": 703, "response": "Beta"}}}