{"generation": {"1": {"stimulus": 64, "trial": 1, "rt": 6406}, "0": {"stimulus": 69, "trial": 0, "rt": 13454}, "3": {"stimulus": 63, "trial": 3, "rt": 6802}, "2": {"stimulus": 71, "trial": 2, "rt": 6205}}, "info": {"finish": 1488822478688, "participant": 95, "exposed": true, "lab": false, "start": 1488822183164, "counterbalance": 1, "condition": "Row", "browser": {"platform": "MacIntel", "userAgent": "Mozilla/5.0 (Macintosh; Intel Mac OS X 10_11_3) AppleWebKit/537.36 (KHTML, like Gecko) Chrome/48.0.2564.109 Safari/537.36"}}, "experiment": {"Paradigm": "TACL", "Stimuli": "Size-Color Squares", "Experiment": "Generating-Categories"}, "observation": {"11": {"stimulus": 14, "trial": 11, "rt": 1210}, "10": {"stimulus": 16, "trial": 10, "rt": 1266}, "1": {"stimulus": 14, "trial": 1, "rt": 2808}, "0": {"stimulus": 12, "trial": 0, "rt": 6328}, "3": {"stimulus": 10, "trial": 3, "rt": 2662}, "2": {"stimulus": 16, "trial": 2, "rt": 3358}, "5": {"stimulus": 12, "trial": 5, "rt": 4895}, "4": {"stimulus": 16, "trial": 4, "rt": 1575}, "7": {"stimulus": 14, "trial": 7, "rt": 1247}, "6": {"stimulus": 10, "trial": 6, "rt": 1743}, "9": {"stimulus": 10, "trial": 9, "rt": 1225}, "8": {"stimulus": 12, "trial": 8, "rt": 1235}}, "generalization": {"56": {"stimulus": 20, "trial": 56, "rt": 1377, "response": "Alpha"}, "77": {"stimulus": 29, "trial": 77, "rt": 999, "response": "Beta"}, "54": {"stimulus": 35, "trial": 54, "rt": 1507, "response": "Alpha"}, "42": {"stimulus": 1, "trial": 42, "rt": 1186, "response": "Alpha"}, "48": {"stimulus": 76, "trial": 48, "rt": 881, "response": "Beta"}, "43": {"stimulus": 19, "trial": 43, "rt": 957, "response": "Alpha"}, "60": {"stimulus": 18, "trial": 60, "rt": 1302, "response": "Alpha"}, "61": {"stimulus": 74, "trial": 61, "rt": 1336, "response": "Beta"}, "62": {"stimulus": 9, "trial": 62, "rt": 1432, "response": "Alpha"}, "63": {"stimulus": 50, "trial": 63, "rt": 1718, "response": "Beta"}, "64": {"stimulus": 62, "trial": 64, "rt": 871, "response": "Beta"}, "49": {"stimulus": 0, "trial": 49, "rt": 1709, "response": "Alpha"}, "66": {"stimulus": 79, "trial": 66, "rt": 1377, "response": "Beta"}, "67": {"stimulus": 42, "trial": 67, "rt": 1804, "response": "Alpha"}, "68": {"stimulus": 72, "trial": 68, "rt": 1789, "response": "Beta"}, "69": {"stimulus": 5, "trial": 69, "rt": 1399, "response": "Alpha"}, "80": {"stimulus": 45, "trial": 80, "rt": 855, "response": "Beta"}, "52": {"stimulus": 61, "trial": 52, "rt": 2151, "response": "Beta"}, "53": {"stimulus": 67, "trial": 53, "rt": 6618, "response": "Beta"}, "24": {"stimulus": 15, "trial": 24, "rt": 1648, "response": "Alpha"}, "25": {"stimulus": 34, "trial": 25, "rt": 1330, "response": "Alpha"}, "26": {"stimulus": 52, "trial": 26, "rt": 1704, "response": "Beta"}, "27": {"stimulus": 66, "trial": 27, "rt": 770, "response": "Beta"}, "20": {"stimulus": 54, "trial": 20, "rt": 1386, "response": "Beta"}, "21": {"stimulus": 24, "trial": 21, "rt": 1599, "response": "Alpha"}, "22": {"stimulus": 39, "trial": 22, "rt": 2469, "response": "Alpha"}, "23": {"stimulus": 80, "trial": 23, "rt": 1725, "response": "Beta"}, "46": {"stimulus": 16, "trial": 46, "rt": 1768, "response": "Alpha"}, "47": {"stimulus": 58, "trial": 47, "rt": 1264, "response": "Beta"}, "44": {"stimulus": 47, "trial": 44, "rt": 1825, "response": "Alpha"}, "45": {"stimulus": 77, "trial": 45, "rt": 1576, "response": "Beta"}, "28": {"stimulus": 43, "trial": 28, "rt": 2639, "response": "Alpha"}, "29": {"stimulus": 41, "trial": 29, "rt": 1060, "response": "Alpha"}, "40": {"stimulus": 78, "trial": 40, "rt": 1506, "response": "Beta"}, "41": {"stimulus": 31, "trial": 41, "rt": 1902, "response": "Alpha"}, "1": {"stimulus": 12, "trial": 1, "rt": 1405, "response": "Alpha"}, "0": {"stimulus": 46, "trial": 0, "rt": 7158, "response": "Alpha"}, "3": {"stimulus": 64, "trial": 3, "rt": 927, "response": "Beta"}, "2": {"stimulus": 73, "trial": 2, "rt": 1275, "response": "Beta"}, "5": {"stimulus": 59, "trial": 5, "rt": 1857, "response": "Beta"}, "4": {"stimulus": 36, "trial": 4, "rt": 2078, "response": "Alpha"}, "7": {"stimulus": 49, "trial": 7, "rt": 2306, "response": "Alpha"}, "6": {"stimulus": 53, "trial": 6, "rt": 3054, "response": "Alpha"}, "9": {"stimulus": 75, "trial": 9, "rt": 1470, "response": "Beta"}, "8": {"stimulus": 4, "trial": 8, "rt": 1218, "response": "Alpha"}, "78": {"stimulus": 48, "trial": 78, "rt": 758, "response": "Beta"}, "51": {"stimulus": 21, "trial": 51, "rt": 1149, "response": "Alpha"}, "39": {"stimulus": 14, "trial": 39, "rt": 1638, "response": "Alpha"}, "65": {"stimulus": 13, "trial": 65, "rt": 1337, "response": "Alpha"}, "76": {"stimulus": 25, "trial": 76, "rt": 1143, "response": "Beta"}, "75": {"stimulus": 70, "trial": 75, "rt": 806, "response": "Beta"}, "38": {"stimulus": 55, "trial": 38, "rt": 1326, "response": "Beta"}, "73": {"stimulus": 56, "trial": 73, "rt": 928, "response": "Beta"}, "72": {"stimulus": 51, "trial": 72, "rt": 3126, "response": "Beta"}, "71": {"stimulus": 23, "trial": 71, "rt": 1439, "response": "Alpha"}, "70": {"stimulus": 60, "trial": 70, "rt": 1736, "response": "Beta"}, "59": {"stimulus": 65, "trial": 59, "rt": 646, "response": "Beta"}, "79": {"stimulus": 37, "trial": 79, "rt": 854, "response": "Beta"}, "58": {"stimulus": 68, "trial": 58, "rt": 1311, "response": "Beta"}, "11": {"stimulus": 63, "trial": 11, "rt": 1470, "response": "Beta"}, "10": {"stimulus": 3, "trial": 10, "rt": 1705, "response": "Alpha"}, "13": {"stimulus": 10, "trial": 13, "rt": 927, "response": "Alpha"}, "12": {"stimulus": 28, "trial": 12, "rt": 1847, "response": "Alpha"}, "15": {"stimulus": 33, "trial": 15, "rt": 1913, "response": "Alpha"}, "14": {"stimulus": 57, "trial": 14, "rt": 1702, "response": "Beta"}, "17": {"stimulus": 22, "trial": 17, "rt": 1298, "response": "Alpha"}, "16": {"stimulus": 27, "trial": 16, "rt": 904, "response": "Alpha"}, "19": {"stimulus": 26, "trial": 19, "rt": 1398, "response": "Alpha"}, "18": {"stimulus": 2, "trial": 18, "rt": 973, "response": "Alpha"}, "31": {"stimulus": 30, "trial": 31, "rt": 2510, "response": "Alpha"}, "30": {"stimulus": 8, "trial": 30, "rt": 1780, "response": "Alpha"}, "37": {"stimulus": 71, "trial": 37, "rt": 1615, "response": "Beta"}, "36": {"stimulus": 32, "trial": 36, "rt": 1348, "response": "Alpha"}, "35": {"stimulus": 7, "trial": 35, "rt": 1080, "response": "Alpha"}, "34": {"stimulus": 11, "trial": 34, "rt": 769, "response": "Alpha"}, "33": {"stimulus": 6, "trial": 33, "rt": 1625, "response": "Alpha"}, "55": {"stimulus": 69, "trial": 55, "rt": 17785, "response": "Beta"}, "74": {"stimulus": 38, "trial": 74, "rt": 3006, "response": "Beta"}, "32": {"stimulus": 17, "trial": 32, "rt": 898, "response": "Alpha"}, "57": {"stimulus": 40, "trial": 57, "rt": 1058, "response": "Alpha"}, "50": {"stimulus": 44, "trial": 50, "rt": 7698, "response": "Alpha"}}}