{"generation": {"1": {"stimulus": 1, "trial": 1, "rt": 22785}, "0": {"stimulus": 0, "trial": 0, "rt": 45063}, "3": {"stimulus": 3, "trial": 3, "rt": 11011}, "2": {"stimulus": 2, "trial": 2, "rt": 19560}}, "info": {"finish": 1488822744572, "participant": 97, "exposed": true, "lab": false, "start": 1488822193617, "counterbalance": 0, "condition": "XOR", "browser": {"platform": "Win32", "userAgent": "Mozilla/5.0 (Windows NT 6.1; WOW64) AppleWebKit/537.36 (KHTML, like Gecko) Chrome/56.0.2924.87 Safari/537.36"}}, "experiment": {"Paradigm": "TACL", "Stimuli": "Size-Color Squares", "Experiment": "Generating-Categories"}, "observation": {"11": {"stimulus": 70, "trial": 11, "rt": 5861}, "10": {"stimulus": 10, "trial": 10, "rt": 1132}, "1": {"stimulus": 10, "trial": 1, "rt": 6337}, "0": {"stimulus": 80, "trial": 0, "rt": 8883}, "3": {"stimulus": 70, "trial": 3, "rt": 6112}, "2": {"stimulus": 0, "trial": 2, "rt": 5928}, "5": {"stimulus": 80, "trial": 5, "rt": 6427}, "4": {"stimulus": 10, "trial": 4, "rt": 5896}, "7": {"stimulus": 0, "trial": 7, "rt": 1911}, "6": {"stimulus": 70, "trial": 6, "rt": 5276}, "9": {"stimulus": 80, "trial": 9, "rt": 1238}, "8": {"stimulus": 0, "trial": 8, "rt": 1468}}, "generalization": {"56": {"stimulus": 22, "trial": 56, "rt": 5064, "response": "Alpha"}, "77": {"stimulus": 78, "trial": 77, "rt": 817, "response": "Alpha"}, "54": {"stimulus": 10, "trial": 54, "rt": 4862, "response": "Alpha"}, "42": {"stimulus": 34, "trial": 42, "rt": 896, "response": "Alpha"}, "48": {"stimulus": 39, "trial": 48, "rt": 812, "response": "Alpha"}, "43": {"stimulus": 36, "trial": 43, "rt": 789, "response": "Alpha"}, "60": {"stimulus": 35, "trial": 60, "rt": 770, "response": "Alpha"}, "61": {"stimulus": 58, "trial": 61, "rt": 606, "response": "Alpha"}, "62": {"stimulus": 14, "trial": 62, "rt": 896, "response": "Alpha"}, "63": {"stimulus": 1, "trial": 63, "rt": 1018, "response": "Beta"}, "64": {"stimulus": 69, "trial": 64, "rt": 995, "response": "Alpha"}, "49": {"stimulus": 17, "trial": 49, "rt": 939, "response": "Alpha"}, "66": {"stimulus": 50, "trial": 66, "rt": 813, "response": "Alpha"}, "67": {"stimulus": 52, "trial": 67, "rt": 883, "response": "Alpha"}, "68": {"stimulus": 79, "trial": 68, "rt": 836, "response": "Alpha"}, "69": {"stimulus": 41, "trial": 69, "rt": 824, "response": "Alpha"}, "80": {"stimulus": 75, "trial": 80, "rt": 618, "response": "Alpha"}, "52": {"stimulus": 77, "trial": 52, "rt": 791, "response": "Alpha"}, "53": {"stimulus": 21, "trial": 53, "rt": 873, "response": "Alpha"}, "24": {"stimulus": 37, "trial": 24, "rt": 939, "response": "Alpha"}, "25": {"stimulus": 31, "trial": 25, "rt": 5680, "response": "Alpha"}, "26": {"stimulus": 73, "trial": 26, "rt": 1027, "response": "Alpha"}, "27": {"stimulus": 74, "trial": 27, "rt": 4502, "response": "Alpha"}, "20": {"stimulus": 46, "trial": 20, "rt": 765, "response": "Alpha"}, "21": {"stimulus": 33, "trial": 21, "rt": 752, "response": "Alpha"}, "22": {"stimulus": 80, "trial": 22, "rt": 866, "response": "Alpha"}, "23": {"stimulus": 44, "trial": 23, "rt": 944, "response": "Alpha"}, "46": {"stimulus": 26, "trial": 46, "rt": 777, "response": "Alpha"}, "47": {"stimulus": 9, "trial": 47, "rt": 1160, "response": "Alpha"}, "44": {"stimulus": 0, "trial": 44, "rt": 1549, "response": "Beta"}, "45": {"stimulus": 56, "trial": 45, "rt": 1450, "response": "Alpha"}, "28": {"stimulus": 4, "trial": 28, "rt": 6098, "response": "Beta"}, "29": {"stimulus": 24, "trial": 29, "rt": 2769, "response": "Alpha"}, "40": {"stimulus": 76, "trial": 40, "rt": 694, "response": "Alpha"}, "41": {"stimulus": 66, "trial": 41, "rt": 836, "response": "Alpha"}, "1": {"stimulus": 7, "trial": 1, "rt": 6242, "response": "Beta"}, "0": {"stimulus": 25, "trial": 0, "rt": 6307, "response": "Alpha"}, "3": {"stimulus": 49, "trial": 3, "rt": 934, "response": "Alpha"}, "2": {"stimulus": 68, "trial": 2, "rt": 4863, "response": "Alpha"}, "5": {"stimulus": 38, "trial": 5, "rt": 5321, "response": "Alpha"}, "4": {"stimulus": 40, "trial": 4, "rt": 4543, "response": "Alpha"}, "7": {"stimulus": 64, "trial": 7, "rt": 1386, "response": "Alpha"}, "6": {"stimulus": 8, "trial": 6, "rt": 1466, "response": "Beta"}, "9": {"stimulus": 54, "trial": 9, "rt": 876, "response": "Alpha"}, "8": {"stimulus": 67, "trial": 8, "rt": 787, "response": "Alpha"}, "78": {"stimulus": 2, "trial": 78, "rt": 4444, "response": "Beta"}, "51": {"stimulus": 12, "trial": 51, "rt": 1381, "response": "Alpha"}, "39": {"stimulus": 72, "trial": 39, "rt": 4931, "response": "Alpha"}, "65": {"stimulus": 32, "trial": 65, "rt": 917, "response": "Alpha"}, "76": {"stimulus": 13, "trial": 76, "rt": 861, "response": "Alpha"}, "75": {"stimulus": 43, "trial": 75, "rt": 823, "response": "Alpha"}, "38": {"stimulus": 29, "trial": 38, "rt": 715, "response": "Alpha"}, "73": {"stimulus": 62, "trial": 73, "rt": 922, "response": "Alpha"}, "72": {"stimulus": 65, "trial": 72, "rt": 831, "response": "Alpha"}, "71": {"stimulus": 42, "trial": 71, "rt": 831, "response": "Alpha"}, "70": {"stimulus": 16, "trial": 70, "rt": 4567, "response": "Alpha"}, "59": {"stimulus": 23, "trial": 59, "rt": 615, "response": "Alpha"}, "79": {"stimulus": 15, "trial": 79, "rt": 1299, "response": "Alpha"}, "58": {"stimulus": 20, "trial": 58, "rt": 5655, "response": "Alpha"}, "11": {"stimulus": 48, "trial": 11, "rt": 874, "response": "Alpha"}, "10": {"stimulus": 30, "trial": 10, "rt": 4560, "response": "Alpha"}, "13": {"stimulus": 59, "trial": 13, "rt": 580, "response": "Alpha"}, "12": {"stimulus": 60, "trial": 12, "rt": 5007, "response": "Alpha"}, "15": {"stimulus": 71, "trial": 15, "rt": 5269, "response": "Alpha"}, "14": {"stimulus": 6, "trial": 14, "rt": 6211, "response": "Beta"}, "17": {"stimulus": 19, "trial": 17, "rt": 1028, "response": "Alpha"}, "16": {"stimulus": 27, "trial": 16, "rt": 781, "response": "Alpha"}, "19": {"stimulus": 28, "trial": 19, "rt": 799, "response": "Alpha"}, "18": {"stimulus": 51, "trial": 18, "rt": 984, "response": "Alpha"}, "31": {"stimulus": 53, "trial": 31, "rt": 1267, "response": "Alpha"}, "30": {"stimulus": 63, "trial": 30, "rt": 1253, "response": "Alpha"}, "37": {"stimulus": 61, "trial": 37, "rt": 4752, "response": "Alpha"}, "36": {"stimulus": 47, "trial": 36, "rt": 743, "response": "Alpha"}, "35": {"stimulus": 55, "trial": 35, "rt": 6574, "response": "Alpha"}, "34": {"stimulus": 3, "trial": 34, "rt": 1311, "response": "Beta"}, "33": {"stimulus": 11, "trial": 33, "rt": 1955, "response": "Alpha"}, "55": {"stimulus": 5, "trial": 55, "rt": 5380, "response": "Beta"}, "74": {"stimulus": 18, "trial": 74, "rt": 4511, "response": "Alpha"}, "32": {"stimulus": 57, "trial": 32, "rt": 1489, "response": "Alpha"}, "57": {"stimulus": 45, "trial": 57, "rt": 7654, "response": "Alpha"}, "50": {"stimulus": 70, "trial": 50, "rt": 5106, "response": "Alpha"}}}