{"generation": {"1": {"stimulus": 0, "trial": 1, "rt": 9172}, "0": {"stimulus": 72, "trial": 0, "rt": 12032}, "3": {"stimulus": 45, "trial": 3, "rt": 5681}, "2": {"stimulus": 27, "trial": 2, "rt": 6819}}, "info": {"finish": 1488822495665, "participant": 98, "exposed": true, "lab": false, "start": 1488822203239, "counterbalance": 6, "condition": "Cluster", "browser": {"platform": "Win32", "userAgent": "Mozilla/5.0 (Windows NT 6.3; WOW64) AppleWebKit/537.36 (KHTML, like Gecko) Chrome/56.0.2924.87 Safari/537.36"}}, "experiment": {"Paradigm": "TACL", "Stimuli": "Size-Color Squares", "Experiment": "Generating-Categories"}, "observation": {"11": {"stimulus": 34, "trial": 11, "rt": 1095}, "10": {"stimulus": 14, "trial": 10, "rt": 1130}, "1": {"stimulus": 32, "trial": 1, "rt": 1914}, "0": {"stimulus": 14, "trial": 0, "rt": 2808}, "3": {"stimulus": 34, "trial": 3, "rt": 1498}, "2": {"stimulus": 16, "trial": 2, "rt": 1518}, "5": {"stimulus": 14, "trial": 5, "rt": 1735}, "4": {"stimulus": 34, "trial": 4, "rt": 2060}, "7": {"stimulus": 32, "trial": 7, "rt": 1358}, "6": {"stimulus": 16, "trial": 6, "rt": 1576}, "9": {"stimulus": 16, "trial": 9, "rt": 1152}, "8": {"stimulus": 32, "trial": 8, "rt": 1573}}, "generalization": {"56": {"stimulus": 33, "trial": 56, "rt": 1115, "response": "Alpha"}, "77": {"stimulus": 2, "trial": 77, "rt": 650, "response": "Beta"}, "54": {"stimulus": 63, "trial": 54, "rt": 8010, "response": "Beta"}, "42": {"stimulus": 70, "trial": 42, "rt": 1456, "response": "Beta"}, "48": {"stimulus": 76, "trial": 48, "rt": 585, "response": "Beta"}, "43": {"stimulus": 39, "trial": 43, "rt": 1259, "response": "Beta"}, "60": {"stimulus": 3, "trial": 60, "rt": 941, "response": "Alpha"}, "61": {"stimulus": 23, "trial": 61, "rt": 1022, "response": "Alpha"}, "62": {"stimulus": 8, "trial": 62, "rt": 796, "response": "Alpha"}, "63": {"stimulus": 52, "trial": 63, "rt": 1351, "response": "Alpha"}, "64": {"stimulus": 7, "trial": 64, "rt": 809, "response": "Alpha"}, "49": {"stimulus": 68, "trial": 49, "rt": 814, "response": "Beta"}, "66": {"stimulus": 41, "trial": 66, "rt": 1553, "response": "Alpha"}, "67": {"stimulus": 15, "trial": 67, "rt": 1544, "response": "Alpha"}, "68": {"stimulus": 54, "trial": 68, "rt": 835, "response": "Beta"}, "69": {"stimulus": 80, "trial": 69, "rt": 1404, "response": "Beta"}, "80": {"stimulus": 21, "trial": 80, "rt": 502, "response": "Beta"}, "52": {"stimulus": 17, "trial": 52, "rt": 1006, "response": "Alpha"}, "53": {"stimulus": 66, "trial": 53, "rt": 961, "response": "Beta"}, "24": {"stimulus": 25, "trial": 24, "rt": 1928, "response": "Alpha"}, "25": {"stimulus": 32, "trial": 25, "rt": 1434, "response": "Alpha"}, "26": {"stimulus": 18, "trial": 26, "rt": 898, "response": "Beta"}, "27": {"stimulus": 31, "trial": 27, "rt": 754, "response": "Beta"}, "20": {"stimulus": 40, "trial": 20, "rt": 1059, "response": "Beta"}, "21": {"stimulus": 78, "trial": 21, "rt": 1111, "response": "Beta"}, "22": {"stimulus": 26, "trial": 22, "rt": 1072, "response": "Alpha"}, "23": {"stimulus": 48, "trial": 23, "rt": 735, "response": "Beta"}, "46": {"stimulus": 9, "trial": 46, "rt": 782, "response": "Beta"}, "47": {"stimulus": 50, "trial": 47, "rt": 931, "response": "Alpha"}, "44": {"stimulus": 69, "trial": 44, "rt": 643, "response": "Beta"}, "45": {"stimulus": 19, "trial": 45, "rt": 1175, "response": "Beta"}, "28": {"stimulus": 12, "trial": 28, "rt": 1545, "response": "Beta"}, "29": {"stimulus": 42, "trial": 29, "rt": 1383, "response": "Beta"}, "40": {"stimulus": 72, "trial": 40, "rt": 7938, "response": "Beta"}, "41": {"stimulus": 1, "trial": 41, "rt": 1359, "response": "Beta"}, "1": {"stimulus": 35, "trial": 1, "rt": 33287, "response": "Beta"}, "0": {"stimulus": 16, "trial": 0, "rt": 2427, "response": "Alpha"}, "3": {"stimulus": 5, "trial": 3, "rt": 1945, "response": "Alpha"}, "2": {"stimulus": 55, "trial": 2, "rt": 1388, "response": "Beta"}, "5": {"stimulus": 77, "trial": 5, "rt": 1071, "response": "Beta"}, "4": {"stimulus": 53, "trial": 4, "rt": 1411, "response": "Beta"}, "7": {"stimulus": 36, "trial": 7, "rt": 764, "response": "Beta"}, "6": {"stimulus": 58, "trial": 6, "rt": 1116, "response": "Beta"}, "9": {"stimulus": 56, "trial": 9, "rt": 945, "response": "Beta"}, "8": {"stimulus": 34, "trial": 8, "rt": 1320, "response": "Alpha"}, "78": {"stimulus": 20, "trial": 78, "rt": 536, "response": "Beta"}, "51": {"stimulus": 45, "trial": 51, "rt": 536, "response": "Beta"}, "39": {"stimulus": 65, "trial": 39, "rt": 12056, "response": "Beta"}, "65": {"stimulus": 61, "trial": 65, "rt": 1692, "response": "Alpha"}, "76": {"stimulus": 75, "trial": 76, "rt": 583, "response": "Beta"}, "75": {"stimulus": 38, "trial": 75, "rt": 579, "response": "Beta"}, "38": {"stimulus": 24, "trial": 38, "rt": 3193, "response": "Alpha"}, "73": {"stimulus": 67, "trial": 73, "rt": 794, "response": "Beta"}, "72": {"stimulus": 37, "trial": 72, "rt": 1074, "response": "Beta"}, "71": {"stimulus": 22, "trial": 71, "rt": 943, "response": "Alpha"}, "70": {"stimulus": 51, "trial": 70, "rt": 1221, "response": "Alpha"}, "59": {"stimulus": 73, "trial": 59, "rt": 1035, "response": "Beta"}, "79": {"stimulus": 29, "trial": 79, "rt": 488, "response": "Beta"}, "58": {"stimulus": 79, "trial": 58, "rt": 1356, "response": "Beta"}, "11": {"stimulus": 59, "trial": 11, "rt": 1336, "response": "Beta"}, "10": {"stimulus": 30, "trial": 10, "rt": 873, "response": "Beta"}, "13": {"stimulus": 11, "trial": 13, "rt": 1957, "response": "Beta"}, "12": {"stimulus": 44, "trial": 12, "rt": 822, "response": "Alpha"}, "15": {"stimulus": 62, "trial": 15, "rt": 580, "response": "Beta"}, "14": {"stimulus": 71, "trial": 14, "rt": 1053, "response": "Beta"}, "17": {"stimulus": 4, "trial": 17, "rt": 1982, "response": "Alpha"}, "16": {"stimulus": 27, "trial": 16, "rt": 835, "response": "Alpha"}, "19": {"stimulus": 28, "trial": 19, "rt": 848, "response": "Beta"}, "18": {"stimulus": 57, "trial": 18, "rt": 1326, "response": "Alpha"}, "31": {"stimulus": 74, "trial": 31, "rt": 896, "response": "Beta"}, "30": {"stimulus": 43, "trial": 30, "rt": 749, "response": "Alpha"}, "37": {"stimulus": 13, "trial": 37, "rt": 5394, "response": "Alpha"}, "36": {"stimulus": 49, "trial": 36, "rt": 3007, "response": "Beta"}, "35": {"stimulus": 6, "trial": 35, "rt": 2507, "response": "Alpha"}, "34": {"stimulus": 0, "trial": 34, "rt": 1541, "response": "Beta"}, "33": {"stimulus": 14, "trial": 33, "rt": 2005, "response": "Alpha"}, "55": {"stimulus": 10, "trial": 55, "rt": 1025, "response": "Beta"}, "74": {"stimulus": 47, "trial": 74, "rt": 961, "response": "Beta"}, "32": {"stimulus": 64, "trial": 32, "rt": 1126, "response": "Beta"}, "57": {"stimulus": 60, "trial": 57, "rt": 734, "response": "Beta"}, "50": {"stimulus": 46, "trial": 50, "rt": 703, "response": "Beta"}}}