{"generation": {"1": {"stimulus": 73, "trial": 1, "rt": 6134}, "0": {"stimulus": 29, "trial": 0, "rt": 58139}, "3": {"stimulus": 80, "trial": 3, "rt": 6498}, "2": {"stimulus": 13, "trial": 2, "rt": 5776}}, "info": {"finish": 1488822588261, "participant": 99, "exposed": true, "lab": false, "start": 1488822199088, "counterbalance": 4, "condition": "XOR", "browser": {"platform": "Win32", "userAgent": "Mozilla/5.0 (Windows NT 10.0; WOW64; rv:51.0) Gecko/20100101 Firefox/51.0"}}, "experiment": {"Paradigm": "TACL", "Stimuli": "Size-Color Squares", "Experiment": "Generating-Categories"}, "observation": {"11": {"stimulus": 10, "trial": 11, "rt": 4425}, "10": {"stimulus": 70, "trial": 10, "rt": 3232}, "1": {"stimulus": 0, "trial": 1, "rt": 6454}, "0": {"stimulus": 10, "trial": 0, "rt": 5739}, "3": {"stimulus": 80, "trial": 3, "rt": 2866}, "2": {"stimulus": 70, "trial": 2, "rt": 6587}, "5": {"stimulus": 10, "trial": 5, "rt": 3550}, "4": {"stimulus": 70, "trial": 4, "rt": 2923}, "7": {"stimulus": 0, "trial": 7, "rt": 2768}, "6": {"stimulus": 80, "trial": 6, "rt": 3180}, "9": {"stimulus": 80, "trial": 9, "rt": 3030}, "8": {"stimulus": 0, "trial": 8, "rt": 3081}}, "generalization": {"56": {"stimulus": 52, "trial": 56, "rt": 908, "response": "Alpha"}, "77": {"stimulus": 57, "trial": 77, "rt": 574, "response": "Beta"}, "54": {"stimulus": 36, "trial": 54, "rt": 625, "response": "Alpha"}, "42": {"stimulus": 53, "trial": 42, "rt": 1546, "response": "Alpha"}, "48": {"stimulus": 45, "trial": 48, "rt": 1342, "response": "Alpha"}, "43": {"stimulus": 32, "trial": 43, "rt": 1626, "response": "Beta"}, "60": {"stimulus": 29, "trial": 60, "rt": 1117, "response": "Beta"}, "61": {"stimulus": 21, "trial": 61, "rt": 891, "response": "Alpha"}, "62": {"stimulus": 58, "trial": 62, "rt": 716, "response": "Beta"}, "63": {"stimulus": 11, "trial": 63, "rt": 990, "response": "Alpha"}, "64": {"stimulus": 13, "trial": 64, "rt": 584, "response": "Alpha"}, "49": {"stimulus": 54, "trial": 49, "rt": 3278, "response": "Alpha"}, "66": {"stimulus": 2, "trial": 66, "rt": 967, "response": "Alpha"}, "67": {"stimulus": 43, "trial": 67, "rt": 901, "response": "Alpha"}, "68": {"stimulus": 5, "trial": 68, "rt": 1358, "response": "Alpha"}, "69": {"stimulus": 18, "trial": 69, "rt": 1488, "response": "Alpha"}, "80": {"stimulus": 12, "trial": 80, "rt": 682, "response": "Alpha"}, "52": {"stimulus": 30, "trial": 52, "rt": 2367, "response": "Beta"}, "53": {"stimulus": 49, "trial": 53, "rt": 1133, "response": "Alpha"}, "24": {"stimulus": 66, "trial": 24, "rt": 1213, "response": "Alpha"}, "25": {"stimulus": 31, "trial": 25, "rt": 1139, "response": "Beta"}, "26": {"stimulus": 77, "trial": 26, "rt": 1203, "response": "Alpha"}, "27": {"stimulus": 78, "trial": 27, "rt": 3301, "response": "Alpha"}, "20": {"stimulus": 8, "trial": 20, "rt": 648, "response": "Alpha"}, "21": {"stimulus": 71, "trial": 21, "rt": 1317, "response": "Alpha"}, "22": {"stimulus": 56, "trial": 22, "rt": 583, "response": "Beta"}, "23": {"stimulus": 69, "trial": 23, "rt": 1058, "response": "Beta"}, "46": {"stimulus": 17, "trial": 46, "rt": 828, "response": "Alpha"}, "47": {"stimulus": 23, "trial": 47, "rt": 1151, "response": "Alpha"}, "44": {"stimulus": 34, "trial": 44, "rt": 1057, "response": "Beta"}, "45": {"stimulus": 74, "trial": 45, "rt": 888, "response": "Alpha"}, "28": {"stimulus": 80, "trial": 28, "rt": 860, "response": "Alpha"}, "29": {"stimulus": 4, "trial": 29, "rt": 2008, "response": "Beta"}, "40": {"stimulus": 79, "trial": 40, "rt": 710, "response": "Alpha"}, "41": {"stimulus": 15, "trial": 41, "rt": 877, "response": "Alpha"}, "1": {"stimulus": 62, "trial": 1, "rt": 2607, "response": "Alpha"}, "0": {"stimulus": 6, "trial": 0, "rt": 2364, "response": "Alpha"}, "3": {"stimulus": 24, "trial": 3, "rt": 1449, "response": "Alpha"}, "2": {"stimulus": 48, "trial": 2, "rt": 876, "response": "Beta"}, "5": {"stimulus": 61, "trial": 5, "rt": 1530, "response": "Alpha"}, "4": {"stimulus": 42, "trial": 4, "rt": 1617, "response": "Alpha"}, "7": {"stimulus": 9, "trial": 7, "rt": 1041, "response": "Beta"}, "6": {"stimulus": 7, "trial": 6, "rt": 1433, "response": "Alpha"}, "9": {"stimulus": 72, "trial": 9, "rt": 1605, "response": "Beta"}, "8": {"stimulus": 3, "trial": 8, "rt": 735, "response": "Beta"}, "78": {"stimulus": 39, "trial": 78, "rt": 1894, "response": "Alpha"}, "51": {"stimulus": 41, "trial": 51, "rt": 791, "response": "Beta"}, "39": {"stimulus": 64, "trial": 39, "rt": 880, "response": "Beta"}, "65": {"stimulus": 22, "trial": 65, "rt": 1037, "response": "Beta"}, "76": {"stimulus": 37, "trial": 76, "rt": 1104, "response": "Alpha"}, "75": {"stimulus": 60, "trial": 75, "rt": 1012, "response": "Beta"}, "38": {"stimulus": 63, "trial": 38, "rt": 1092, "response": "Alpha"}, "73": {"stimulus": 16, "trial": 73, "rt": 603, "response": "Alpha"}, "72": {"stimulus": 65, "trial": 72, "rt": 925, "response": "Beta"}, "71": {"stimulus": 44, "trial": 71, "rt": 610, "response": "Alpha"}, "70": {"stimulus": 59, "trial": 70, "rt": 530, "response": "Beta"}, "59": {"stimulus": 51, "trial": 59, "rt": 765, "response": "Alpha"}, "79": {"stimulus": 25, "trial": 79, "rt": 941, "response": "Alpha"}, "58": {"stimulus": 76, "trial": 58, "rt": 2523, "response": "Beta"}, "11": {"stimulus": 47, "trial": 11, "rt": 919, "response": "Beta"}, "10": {"stimulus": 35, "trial": 10, "rt": 1546, "response": "Alpha"}, "13": {"stimulus": 40, "trial": 13, "rt": 586, "response": "Alpha"}, "12": {"stimulus": 75, "trial": 12, "rt": 1902, "response": "Beta"}, "15": {"stimulus": 28, "trial": 15, "rt": 1967, "response": "Alpha"}, "14": {"stimulus": 38, "trial": 14, "rt": 1181, "response": "Beta"}, "17": {"stimulus": 0, "trial": 17, "rt": 1087, "response": "Alpha"}, "16": {"stimulus": 68, "trial": 16, "rt": 1434, "response": "Alpha"}, "19": {"stimulus": 50, "trial": 19, "rt": 598, "response": "Alpha"}, "18": {"stimulus": 26, "trial": 18, "rt": 829, "response": "Beta"}, "31": {"stimulus": 33, "trial": 31, "rt": 487, "response": "Alpha"}, "30": {"stimulus": 10, "trial": 30, "rt": 5076, "response": "Beta"}, "37": {"stimulus": 70, "trial": 37, "rt": 922, "response": "Alpha"}, "36": {"stimulus": 27, "trial": 36, "rt": 820, "response": "Alpha"}, "35": {"stimulus": 73, "trial": 35, "rt": 2017, "response": "Beta"}, "34": {"stimulus": 19, "trial": 34, "rt": 1031, "response": "Alpha"}, "33": {"stimulus": 67, "trial": 33, "rt": 859, "response": "Beta"}, "55": {"stimulus": 20, "trial": 55, "rt": 1037, "response": "Beta"}, "74": {"stimulus": 1, "trial": 74, "rt": 1038, "response": "Alpha"}, "32": {"stimulus": 46, "trial": 32, "rt": 4816, "response": "Alpha"}, "57": {"stimulus": 55, "trial": 57, "rt": 1138, "response": "Alpha"}, "50": {"stimulus": 14, "trial": 50, "rt": 1551, "response": "Alpha"}}}